block_id,study_rows,test_rows,thisN,thisTrialN,thisRepN,list_id,theme,study_word,language,key_resp_start_set.keys,key_resp_start_set.rt,key_resp_start_set.duration,problem,correct_resp,key_resp.keys,key_resp.rt,key_resp.duration,test_word,word_type,key_resp_start_test.keys,key_resp_start_test.rt,key_resp_start_test.duration,key_resp_test.keys,key_resp_test.corr,key_resp_test.rt,key_resp_test.duration,blocks_loop.thisRepN,blocks_loop.thisTrialN,blocks_loop.thisN,blocks_loop.thisIndex,study_loop.thisRepN,study_loop.thisTrialN,study_loop.thisN,study_loop.thisIndex,distractor_loop.thisRepN,distractor_loop.thisTrialN,distractor_loop.thisN,distractor_loop.thisIndex,test_loop.thisRepN,test_loop.thisTrialN,test_loop.thisN,test_loop.thisIndex,thisRow.t,notes,piloting,instructions.started,text_instr.started,key_resp_instr.started,instructions.stopped,key_resp_instr.keys,key_resp_instr.rt,key_resp_instr.duration,start_set.started,text_start_set.started,key_resp_start_set.started,start_set.stopped,blocks_loop.key_resp_start_set.keys,blocks_loop.key_resp_start_set.rt,blocks_loop.key_resp_start_set.duration,study.started,text_study.started,text_study.stopped,study.stopped,timer.started,timer.stopped,distractor.started,text_problem.started,key_resp.started,text_dist_keys.started,distractor.stopped,distractor_loop.key_resp.keys,distractor_loop.key_resp.rt,distractor_loop.key_resp.duration,start_test.started,text_start_test.started,key_resp_start_test.started,start_test.stopped,blocks_loop.key_resp_start_test.keys,blocks_loop.key_resp_start_test.rt,blocks_loop.key_resp_start_test.duration,test.started,text_test.started,key_resp_test.started,text_test_keys.started,test.stopped,test_loop.key_resp_test.keys,test_loop.key_resp_test.corr,test_loop.key_resp_test.rt,test_loop.key_resp_test.duration,end.started,text.started,text.stopped,end.stopped,participant,session,date,expName,expVersion,psychopyVersion,frameRate,expStart,
,,,,,,,,,,,,,,,,,,,,,,,,,,,,,,,,,,,,,,,,,,,,,True,0.019345249980688095,0.023182916920632124,0.023182916920632124,60.71986595867202,space,60.678735666908324,None,,,,,,,,,,,,,,,,,,,,,,,,,,,,,,,,,,,,,,,,,,2035764,001,2026-05-09_14h00.47.586,false_memory_experiment,,2026.1.3,120.03889300927739,2026-05-09 14h00.47.687285 +0300,
4,36:48,15:20,0,0,0,4,sleep,bed,EN,space,2.428613374941051,None,,,,,,,,,,,,,,,0,0,0,3,0,0,0,0,,,,,,,,,63.18971704179421,,,,,,,,,,60.723549250047654,60.73979416675866,60.73979416675866,63.174501958768815,space,2.428613374941051,None,63.18526758393273,63.18971704179421,64.68137437477708,64.67396004172042,,,,,,,,,,,,,,,,,,,,,,,,,,,,,,,2035764,001,2026-05-09_14h00.47.586,false_memory_experiment,,2026.1.3,120.03889300927739,2026-05-09 14h00.47.687285 +0300,
4,36:48,15:20,1,1,0,4,sleep,dream,EN,space,2.428613374941051,None,,,,,,,,,,,,,,,0,0,0,3,0,1,1,1,,,,,,,,,64.68137437477708,,,,,,,,,,,,,,,,,64.67501554172486,64.68137437477708,66.17302841693163,66.16558500006795,,,,,,,,,,,,,,,,,,,,,,,,,,,,,,,2035764,001,2026-05-09_14h00.47.586,false_memory_experiment,,2026.1.3,120.03889300927739,2026-05-09 14h00.47.687285 +0300,
4,36:48,15:20,2,2,0,4,sleep,pillow,EN,space,2.428613374941051,None,,,,,,,,,,,,,,,0,0,0,3,0,2,2,2,,,,,,,,,66.17302841693163,,,,,,,,,,,,,,,,,66.16656112484634,66.17302841693163,67.66473516682163,67.6572543750517,,,,,,,,,,,,,,,,,,,,,,,,,,,,,,,2035764,001,2026-05-09_14h00.47.586,false_memory_experiment,,2026.1.3,120.03889300927739,2026-05-09 14h00.47.687285 +0300,
4,36:48,15:20,3,3,0,4,sleep,night,EN,space,2.428613374941051,None,,,,,,,,,,,,,,,0,0,0,3,0,3,3,3,,,,,,,,,67.66473516682163,,,,,,,,,,,,,,,,,67.65823174966499,67.67304020887241,69.16474941698834,69.15725891664624,,,,,,,,,,,,,,,,,,,,,,,,,,,,,,,2035764,001,2026-05-09_14h00.47.586,false_memory_experiment,,2026.1.3,120.03889300927739,2026-05-09 14h00.47.687285 +0300,
4,36:48,15:20,4,4,0,4,sleep,blanket,EN,space,2.428613374941051,None,,,,,,,,,,,,,,,0,0,0,3,0,4,4,4,,,,,,,,,69.16474941698834,,,,,,,,,,,,,,,,,69.15835995879024,69.17304033366963,70.66470833402127,70.65725395875052,,,,,,,,,,,,,,,,,,,,,,,,,,,,,,,2035764,001,2026-05-09_14h00.47.586,false_memory_experiment,,2026.1.3,120.03889300927739,2026-05-09 14h00.47.687285 +0300,
4,36:48,15:20,5,5,0,4,sleep,rest,EN,space,2.428613374941051,None,,,,,,,,,,,,,,,0,0,0,3,0,5,5,5,,,,,,,,,70.66470833402127,,,,,,,,,,,,,,,,,70.65815337467939,70.67306987475604,72.16471820883453,72.15730195865035,,,,,,,,,,,,,,,,,,,,,,,,,,,,,,,2035764,001,2026-05-09_14h00.47.586,false_memory_experiment,,2026.1.3,120.03889300927739,2026-05-09 14h00.47.687285 +0300,
4,36:48,15:20,6,6,0,4,sleep,snore,EN,space,2.428613374941051,None,,,,,,,,,,,,,,,0,0,0,3,0,6,6,6,,,,,,,,,72.16471820883453,,,,,,,,,,,,,,,,,72.1582766668871,72.17307362472638,73.66472441703081,73.65729049965739,,,,,,,,,,,,,,,,,,,,,,,,,,,,,,,2035764,001,2026-05-09_14h00.47.586,false_memory_experiment,,2026.1.3,120.03889300927739,2026-05-09 14h00.47.687285 +0300,
4,36:48,15:20,7,7,0,4,sleep,tired,EN,space,2.428613374941051,None,,,,,,,,,,,,,,,0,0,0,3,0,7,7,7,,,,,,,,,73.66472441703081,,,,,,,,,,,,,,,,,73.65831641666591,73.67309362487867,75.16479666670784,75.15723416674882,,,,,,,,,,,,,,,,,,,,,,,,,,,,,,,2035764,001,2026-05-09_14h00.47.586,false_memory_experiment,,2026.1.3,120.03889300927739,2026-05-09 14h00.47.687285 +0300,
4,36:48,15:20,8,8,0,4,sleep,nap,EN,space,2.428613374941051,None,,,,,,,,,,,,,,,0,0,0,3,0,8,8,8,,,,,,,,,75.16479666670784,,,,,,,,,,,,,,,,,75.15806133393198,75.1730293747969,76.6647529588081,76.65729908365756,,,,,,,,,,,,,,,,,,,,,,,,,,,,,,,2035764,001,2026-05-09_14h00.47.586,false_memory_experiment,,2026.1.3,120.03889300927739,2026-05-09 14h00.47.687285 +0300,
4,36:48,15:20,9,9,0,4,sleep,dark,EN,space,2.428613374941051,None,,,,,,,,,,,,,,,0,0,0,3,0,9,9,9,,,,,,,,,76.6647529588081,,,,,,,,,,,,,,,,,76.65817483374849,76.67307037487626,78.16472445894033,78.15730866696686,,,,,,,,,,,,,,,,,,,,,,,,,,,,,,,2035764,001,2026-05-09_14h00.47.586,false_memory_experiment,,2026.1.3,120.03889300927739,2026-05-09 14h00.47.687285 +0300,
4,36:48,15:20,10,10,0,4,sleep,pajamas,EN,space,2.428613374941051,None,,,,,,,,,,,,,,,0,0,0,3,0,10,10,10,,,,,,,,,78.16472445894033,,,,,,,,,,,,,,,,,78.15898974984884,78.17305966699496,79.66472641704604,79.65732191689312,,,,,,,,,,,,,,,,,,,,,,,,,,,,,,,2035764,001,2026-05-09_14h00.47.586,false_memory_experiment,,2026.1.3,120.03889300927739,2026-05-09 14h00.47.687285 +0300,
4,36:48,15:20,11,11,0,4,sleep,yawn,EN,space,2.428613374941051,None,,,,,,,,,,,,,,,0,0,0,3,0,11,11,11,,,,,,,,,79.66472641704604,,,,,,,,,,,,,,,,,79.65811791690066,79.67308208392933,81.38146850001067,81.15725420881063,,,,,,,,,,,,,,,,,,,,,,,,,,,,,,,2035764,001,2026-05-09_14h00.47.586,false_memory_experiment,,2026.1.3,120.03889300927739,2026-05-09 14h00.47.687285 +0300,
4,36:48,15:20,0,0,0,,,,,space,2.428613374941051,None,28 + 42 = 69,left,left,6.557403041981161,None,,,,,,,,,,0,0,0,3,,,,,0,0,0,36,,,,,81.38146850001067,,,,,,,,,,,,,,,,,,,,,81.158415958751,81.15843699965626,81.3728498336859,81.38146850001067,81.38146850001067,81.38146850001067,87.94105324987322,left,6.557403041981161,None,,,,,,,,,,,,,,,,,,,,,2035764,001,2026-05-09_14h00.47.586,false_memory_experiment,,2026.1.3,120.03889300927739,2026-05-09 14h00.47.687285 +0300,
4,36:48,15:20,1,1,0,,,,,space,2.428613374941051,None,41 + 19 = 65,left,left,7.306402124930173,None,,,,,,,,,,0,0,0,3,,,,,0,1,1,23,,,,,87.97313104197383,,,,,,,,,,,,,,,,,,,,,,,87.9431274170056,87.97313104197383,87.97313104197383,87.97313104197383,95.2827021246776,left,7.306402124930173,None,,,,,,,,,,,,,,,,,,,,,2035764,001,2026-05-09_14h00.47.586,false_memory_experiment,,2026.1.3,120.03889300927739,2026-05-09 14h00.47.687285 +0300,
4,36:48,15:20,2,2,0,,,,,space,2.428613374941051,None,35 - 26 = 7,left,None,,,,,,,,,,,,0,0,0,3,,,,,0,2,2,17,,,,,95.28940970869735,,,,,,,,,,,,,,,,,,,,,,,95.28597691701725,95.28940970869735,95.28940970869735,95.28940970869735,96.16960791684687,None,,,,,,,,,,,,,,,,,,,,,,,2035764,001,2026-05-09_14h00.47.586,false_memory_experiment,,2026.1.3,120.03889300927739,2026-05-09 14h00.47.687285 +0300,
4,36:48,15:20,0,0,0,4,,,EN,space,2.428613374941051,None,,left,,,,car,distractor,space,3.743859165813774,None,left,1,2.605096667073667,None,0,0,0,3,,,,,,,,,0,0,0,3,99.9397351667285,,,,,,,,,,,,,,,,,,,,,,,,,,,,,,,96.17086316691712,96.17338312463835,96.17338312463835,99.92450158391148,space,3.743859165813774,None,99.93152537476271,99.9397351667285,99.9397351667285,99.9397351667285,102.54976362502202,left,1,2.605096667073667,None,,,,,2035764,001,2026-05-09_14h00.47.586,false_memory_experiment,,2026.1.3,120.03889300927739,2026-05-09 14h00.47.687285 +0300,
4,36:48,15:20,1,1,0,4,,,EN,space,2.428613374941051,None,,left,,,,sleep,critical_lure,space,3.743859165813774,None,right,0,2.892306791152805,None,0,0,0,3,,,,,,,,,0,1,1,4,102.55633612489328,,,,,,,,,,,,,,,,,,,,,,,,,,,,,,,,,,,,,,102.55079724965617,102.55633612489328,102.55633612489328,102.55633612489328,105.44942166702822,right,0,2.892306791152805,None,,,,,2035764,001,2026-05-09_14h00.47.586,false_memory_experiment,,2026.1.3,120.03889300927739,2026-05-09 14h00.47.687285 +0300,
4,36:48,15:20,2,2,0,4,,,EN,space,2.428613374941051,None,,left,,,,chair,distractor,space,3.743859165813774,None,left,1,0.9382664170116186,None,0,0,0,3,,,,,,,,,0,2,2,2,105.45635533379391,,,,,,,,,,,,,,,,,,,,,,,,,,,,,,,,,,,,,,105.45049829175696,105.45635533379391,105.45635533379391,105.45635533379391,106.39920941693708,left,1,0.9382664170116186,None,,,,,2035764,001,2026-05-09_14h00.47.586,false_memory_experiment,,2026.1.3,120.03889300927739,2026-05-09 14h00.47.687285 +0300,
4,36:48,15:20,3,3,0,4,,,EN,space,2.428613374941051,None,,right,,,,yawn,old,space,3.743859165813774,None,right,1,1.0701930415816605,None,0,0,0,3,,,,,,,,,0,3,3,1,106.40634766686708,,,,,,,,,,,,,,,,,,,,,,,,,,,,,,,,,,,,,,106.40007979189977,106.40634766686708,106.40634766686708,106.40634766686708,107.48257179185748,right,1,1.0701930415816605,None,,,,,2035764,001,2026-05-09_14h00.47.586,false_memory_experiment,,2026.1.3,120.03889300927739,2026-05-09 14h00.47.687285 +0300,
4,36:48,15:20,4,4,0,4,,,EN,space,2.428613374941051,None,,right,,,,bed,old,space,3.743859165813774,None,right,1,1.1748592923395336,None,0,0,0,3,,,,,,,,,0,4,4,0,107.48972583375871,,,,,,,,,,,,,,,,,,,,,,,,,,,,,,,,,,,,,,107.48349170899019,107.48972583375871,107.48972583375871,107.48972583375871,108.66614574985579,right,1,1.1748592923395336,None,,,,,2035764,001,2026-05-09_14h00.47.586,false_memory_experiment,,2026.1.3,120.03889300927739,2026-05-09 14h00.47.687285 +0300,
4,36:48,15:20,0,0,0,,,,,space,2.428613374941051,None,,,,,,,,space,3.743859165813774,None,,,,,0,0,0,3,,,,,,,,,,,,,,,,,,,,,,,,,,,,,,,,,,,,,,,,,,,,,,,,,,,,,,,,,,,,,,,,2035764,001,2026-05-09_14h00.47.586,false_memory_experiment,,2026.1.3,120.03889300927739,2026-05-09 14h00.47.687285 +0300,
3,24:36,10:15,0,0,0,3,soğuk,kış,TR,space,2.096444542054087,None,,,,,,,,,,,,,,,0,1,1,2,0,0,0,0,,,,,,,,,110.78974070865661,,,,,,,,,,108.66716495901346,108.67305887490511,108.67305887490511,110.77434212481603,space,2.096444542054087,None,110.78435229184106,110.78974070865661,112.28134916676208,112.27388704195619,,,,,,,,,,,,,,,,,,,,,,,,,,,,,,,2035764,001,2026-05-09_14h00.47.586,false_memory_experiment,,2026.1.3,120.03889300927739,2026-05-09 14h00.47.687285 +0300,
3,24:36,10:15,1,1,0,3,soğuk,buz,TR,space,2.096444542054087,None,,,,,,,,,,,,,,,0,1,1,2,0,1,1,1,,,,,,,,,112.28134916676208,,,,,,,,,,,,,,,,,112.27511316677555,112.28134916676208,113.7730071246624,113.76558974990621,,,,,,,,,,,,,,,,,,,,,,,,,,,,,,,2035764,001,2026-05-09_14h00.47.586,false_memory_experiment,,2026.1.3,120.03889300927739,2026-05-09 14h00.47.687285 +0300,
3,24:36,10:15,2,2,0,3,soğuk,kar,TR,space,2.096444542054087,None,,,,,,,,,,,,,,,0,1,1,2,0,2,2,2,,,,,,,,,113.7730071246624,,,,,,,,,,,,,,,,,113.7663861666806,113.7730071246624,115.26468099979684,115.25722795864567,,,,,,,,,,,,,,,,,,,,,,,,,,,,,,,2035764,001,2026-05-09_14h00.47.586,false_memory_experiment,,2026.1.3,120.03889300927739,2026-05-09 14h00.47.687285 +0300,
3,24:36,10:15,3,3,0,3,soğuk,üşümek,TR,space,2.096444542054087,None,,,,,,,,,,,,,,,0,1,1,2,0,3,3,3,,,,,,,,,115.26468099979684,,,,,,,,,,,,,,,,,115.25896012503654,115.27303749974817,116.76469441689551,116.75721870874986,,,,,,,,,,,,,,,,,,,,,,,,,,,,,,,2035764,001,2026-05-09_14h00.47.586,false_memory_experiment,,2026.1.3,120.03889300927739,2026-05-09 14h00.47.687285 +0300,
3,24:36,10:15,4,4,0,3,soğuk,dondurucu,TR,space,2.096444542054087,None,,,,,,,,,,,,,,,0,1,1,2,0,4,4,4,,,,,,,,,116.76469441689551,,,,,,,,,,,,,,,,,116.75825229194015,116.77306245872751,118.26471841707826,118.25720341689885,,,,,,,,,,,,,,,,,,,,,,,,,,,,,,,2035764,001,2026-05-09_14h00.47.586,false_memory_experiment,,2026.1.3,120.03889300927739,2026-05-09 14h00.47.687285 +0300,
3,24:36,10:15,5,5,0,3,soğuk,ayaz,TR,space,2.096444542054087,None,,,,,,,,,,,,,,,0,1,1,2,0,5,5,5,,,,,,,,,118.26471841707826,,,,,,,,,,,,,,,,,118.25831420905888,118.27301870891824,119.7647266248241,119.75730337481946,,,,,,,,,,,,,,,,,,,,,,,,,,,,,,,2035764,001,2026-05-09_14h00.47.586,false_memory_experiment,,2026.1.3,120.03889300927739,2026-05-09 14h00.47.687285 +0300,
3,24:36,10:15,6,6,0,3,soğuk,titremek,TR,space,2.096444542054087,None,,,,,,,,,,,,,,,0,1,1,2,0,6,6,6,,,,,,,,,119.7647266248241,,,,,,,,,,,,,,,,,119.75841149967164,119.77302645891905,121.26471812464297,121.25725112482905,,,,,,,,,,,,,,,,,,,,,,,,,,,,,,,2035764,001,2026-05-09_14h00.47.586,false_memory_experiment,,2026.1.3,120.03889300927739,2026-05-09 14h00.47.687285 +0300,
3,24:36,10:15,7,7,0,3,soğuk,derece,TR,space,2.096444542054087,None,,,,,,,,,,,,,,,0,1,1,2,0,7,7,7,,,,,,,,,121.26471812464297,,,,,,,,,,,,,,,,,121.25825466681272,121.27298370888457,122.76468341704458,122.75724325003102,,,,,,,,,,,,,,,,,,,,,,,,,,,,,,,2035764,001,2026-05-09_14h00.47.586,false_memory_experiment,,2026.1.3,120.03889300927739,2026-05-09 14h00.47.687285 +0300,
3,24:36,10:15,8,8,0,3,soğuk,hava,TR,space,2.096444542054087,None,,,,,,,,,,,,,,,0,1,1,2,0,8,8,8,,,,,,,,,122.76468341704458,,,,,,,,,,,,,,,,,122.75883008399978,122.7730488749221,124.26465999986976,124.2571946666576,,,,,,,,,,,,,,,,,,,,,,,,,,,,,,,2035764,001,2026-05-09_14h00.47.586,false_memory_experiment,,2026.1.3,120.03889300927739,2026-05-09 14h00.47.687285 +0300,
3,24:36,10:15,9,9,0,3,soğuk,rüzgar,TR,space,2.096444542054087,None,,,,,,,,,,,,,,,0,1,1,2,0,9,9,9,,,,,,,,,124.26465999986976,,,,,,,,,,,,,,,,,124.25815925002098,124.27300599962473,125.76471599983051,125.75723462505266,,,,,,,,,,,,,,,,,,,,,,,,,,,,,,,2035764,001,2026-05-09_14h00.47.586,false_memory_experiment,,2026.1.3,120.03889300927739,2026-05-09 14h00.47.687285 +0300,
3,24:36,10:15,10,10,0,3,soğuk,mont,TR,space,2.096444542054087,None,,,,,,,,,,,,,,,0,1,1,2,0,10,10,10,,,,,,,,,125.76471599983051,,,,,,,,,,,,,,,,,125.75813429197297,125.77305358368903,127.2647127090022,127.25721554178745,,,,,,,,,,,,,,,,,,,,,,,,,,,,,,,2035764,001,2026-05-09_14h00.47.586,false_memory_experiment,,2026.1.3,120.03889300927739,2026-05-09 14h00.47.687285 +0300,
3,24:36,10:15,11,11,0,3,soğuk,eldiven,TR,space,2.096444542054087,None,,,,,,,,,,,,,,,0,1,1,2,0,11,11,11,,,,,,,,,127.2647127090022,,,,,,,,,,,,,,,,,127.25839695893228,127.2730024587363,128.98144766688347,128.7572073750198,,,,,,,,,,,,,,,,,,,,,,,,,,,,,,,2035764,001,2026-05-09_14h00.47.586,false_memory_experiment,,2026.1.3,120.03889300927739,2026-05-09 14h00.47.687285 +0300,
3,24:36,10:15,0,0,0,,,,,space,2.096444542054087,None,5 + 6 = 6,left,left,1.5815271250903606,None,,,,,,,,,,0,1,1,2,,,,,0,0,0,13,,,,,128.98144766688347,,,,,,,,,,,,,,,,,,,,,128.75839375006035,128.75841474998742,128.97158195869997,128.98144766688347,128.98144766688347,128.98144766688347,130.56603229185566,left,1.5815271250903606,None,,,,,,,,,,,,,,,,,,,,,2035764,001,2026-05-09_14h00.47.586,false_memory_experiment,,2026.1.3,120.03889300927739,2026-05-09 14h00.47.687285 +0300,
3,24:36,10:15,1,1,0,,,,,space,2.096444542054087,None,40 - 22 = 19,left,left,2.360468416940421,None,,,,,,,,,,0,1,1,2,,,,,0,1,1,24,,,,,130.57300045900047,,,,,,,,,,,,,,,,,,,,,,,130.56795854168013,130.57300045900047,130.57300045900047,130.57300045900047,132.94095316668972,left,2.360468416940421,None,,,,,,,,,,,,,,,,,,,,,2035764,001,2026-05-09_14h00.47.586,false_memory_experiment,,2026.1.3,120.03889300927739,2026-05-09 14h00.47.687285 +0300,
3,24:36,10:15,2,2,0,,,,,space,2.096444542054087,None,11 + 10 = 21,right,left,1.8484140830114484,None,,,,,,,,,,0,1,1,2,,,,,0,2,2,19,,,,,132.94801854202524,,,,,,,,,,,,,,,,,,,,,,,132.9420880000107,132.94801854202524,132.94801854202524,132.94801854202524,134.79936000006273,left,1.8484140830114484,None,,,,,,,,,,,,,,,,,,,,,2035764,001,2026-05-09_14h00.47.586,false_memory_experiment,,2026.1.3,120.03889300927739,2026-05-09 14h00.47.687285 +0300,
3,24:36,10:15,3,3,0,,,,,space,2.096444542054087,None,39 - 15 = 26,left,left,1.8639555000700057,None,,,,,,,,,,0,1,1,2,,,,,0,3,3,11,,,,,134.80640887469053,,,,,,,,,,,,,,,,,,,,,,,134.8004691246897,134.80640887469053,134.80640887469053,134.80640887469053,136.6749101667665,left,1.8639555000700057,None,,,,,,,,,,,,,,,,,,,,,2035764,001,2026-05-09_14h00.47.586,false_memory_experiment,,2026.1.3,120.03889300927739,2026-05-09 14h00.47.687285 +0300,
3,24:36,10:15,4,4,0,,,,,space,2.096444542054087,None,12 - 11 = 1,right,right,1.6189776249229908,None,,,,,,,,,,0,1,1,2,,,,,0,4,4,38,,,,,136.681331791915,,,,,,,,,,,,,,,,,,,,,,,136.67603791691363,136.681331791915,136.681331791915,136.681331791915,138.3076449590735,right,1.6189776249229908,None,,,,,,,,,,,,,,,,,,,,,2035764,001,2026-05-09_14h00.47.586,false_memory_experiment,,2026.1.3,120.03889300927739,2026-05-09 14h00.47.687285 +0300,
3,24:36,10:15,5,5,0,,,,,space,2.096444542054087,None,41 + 19 = 65,left,left,1.7005564579740167,None,,,,,,,,,,0,1,1,2,,,,,0,5,5,23,,,,,138.3147030416876,,,,,,,,,,,,,,,,,,,,,,,138.3088837089017,138.3147030416876,138.3147030416876,138.3147030416876,140.01586508378386,left,1.7005564579740167,None,,,,,,,,,,,,,,,,,,,,,2035764,001,2026-05-09_14h00.47.586,false_memory_experiment,,2026.1.3,120.03889300927739,2026-05-09 14h00.47.687285 +0300,
3,24:36,10:15,6,6,0,,,,,space,2.096444542054087,None,38 - 18 = 19,left,right,1.7181669580750167,None,,,,,,,,,,0,1,1,2,,,,,0,6,6,26,,,,,140.02304937504232,,,,,,,,,,,,,,,,,,,,,,,140.0170004996471,140.02304937504232,140.02304937504232,140.02304937504232,141.74919708399102,right,1.7181669580750167,None,,,,,,,,,,,,,,,,,,,,,2035764,001,2026-05-09_14h00.47.586,false_memory_experiment,,2026.1.3,120.03889300927739,2026-05-09 14h00.47.687285 +0300,
3,24:36,10:15,7,7,0,,,,,space,2.096444542054087,None,18 + 6 = 24,right,None,,,,,,,,,,,,0,1,1,2,,,,,0,7,7,18,,,,,141.75640229182318,,,,,,,,,,,,,,,,,,,,,,,141.75031641684473,141.75640229182318,141.75640229182318,141.75640229182318,143.76919595897198,None,,,,,,,,,,,,,,,,,,,,,,,2035764,001,2026-05-09_14h00.47.586,false_memory_experiment,,2026.1.3,120.03889300927739,2026-05-09 14h00.47.687285 +0300,
3,24:36,10:15,0,0,0,3,,,TR,space,2.096444542054087,None,,right,,,,mont,old,space,3.2922900831326842,None,right,1,2.10257975012064,None,0,1,1,2,,,,,,,,,0,0,0,1,147.08140370901674,,,,,,,,,,,,,,,,,,,,,,,,,,,,,,,143.7705487087369,143.77276829164475,143.77276829164475,147.06602599984035,space,3.2922900831326842,None,147.07230620877817,147.08140370901674,147.08140370901674,147.08140370901674,149.19103041663766,right,1,2.10257975012064,None,,,,,2035764,001,2026-05-09_14h00.47.586,false_memory_experiment,,2026.1.3,120.03889300927739,2026-05-09 14h00.47.687285 +0300,
3,24:36,10:15,1,1,0,3,,,TR,space,2.096444542054087,None,,left,,,,bardak,distractor,space,3.2922900831326842,None,left,1,1.0818960424512625,None,0,1,1,2,,,,,,,,,0,1,1,2,149.1980380420573,,,,,,,,,,,,,,,,,,,,,,,,,,,,,,,,,,,,,,149.19200195884332,149.1980380420573,149.1980380420573,149.1980380420573,150.282478292007,left,1,1.0818960424512625,None,,,,,2035764,001,2026-05-09_14h00.47.586,false_memory_experiment,,2026.1.3,120.03889300927739,2026-05-09 14h00.47.687285 +0300,
3,24:36,10:15,2,2,0,3,,,TR,space,2.096444542054087,None,,left,,,,kağıt,distractor,space,3.2922900831326842,None,left,1,1.093448749743402,None,0,1,1,2,,,,,,,,,0,2,2,3,150.28973237471655,,,,,,,,,,,,,,,,,,,,,,,,,,,,,,,,,,,,,,150.2843255000189,150.28973237471655,150.28973237471655,150.28973237471655,151.39085399964824,left,1,1.093448749743402,None,,,,,2035764,001,2026-05-09_14h00.47.586,false_memory_experiment,,2026.1.3,120.03889300927739,2026-05-09 14h00.47.687285 +0300,
3,24:36,10:15,3,3,0,3,,,TR,space,2.096444542054087,None,,left,,,,soğuk,critical_lure,space,3.2922900831326842,None,left,1,4.627495041117072,None,0,1,1,2,,,,,,,,,0,3,3,4,151.39799425005913,,,,,,,,,,,,,,,,,,,,,,,,,,,,,,,,,,,,,,151.39180458383635,151.39799425005913,151.39799425005913,151.39799425005913,156.03275074996054,left,1,4.627495041117072,None,,,,,2035764,001,2026-05-09_14h00.47.586,false_memory_experiment,,2026.1.3,120.03889300927739,2026-05-09 14h00.47.687285 +0300,
3,24:36,10:15,4,4,0,3,,,TR,space,2.096444542054087,None,,right,,,,kış,old,space,3.2922900831326842,None,right,1,0.9103745841421187,None,0,1,1,2,,,,,,,,,0,4,4,0,156.03967249998823,,,,,,,,,,,,,,,,,,,,,,,,,,,,,,,,,,,,,,156.03366070892662,156.03967249998823,156.03967249998823,156.03967249998823,156.95754258381203,right,1,0.9103745841421187,None,,,,,2035764,001,2026-05-09_14h00.47.586,false_memory_experiment,,2026.1.3,120.03889300927739,2026-05-09 14h00.47.687285 +0300,
3,24:36,10:15,1,1,0,,,,,space,2.096444542054087,None,,,,,,,,space,3.2922900831326842,None,,,,,0,1,1,2,,,,,,,,,,,,,,,,,,,,,,,,,,,,,,,,,,,,,,,,,,,,,,,,,,,,,,,,,,,,,,,,2035764,001,2026-05-09_14h00.47.586,false_memory_experiment,,2026.1.3,120.03889300927739,2026-05-09 14h00.47.687285 +0300,
2,12:24,5:10,0,0,0,2,tatlı,şeker,TR,space,0.7563749998807907,None,,,,,,,,,,,,,,,0,2,2,1,0,0,0,0,,,,,,,,,157.7396733337082,,,,,,,,,,156.95860383380204,156.96465662494302,156.96465662494302,157.72427845885977,space,0.7563749998807907,None,157.73317954177037,157.7396733337082,159.23132500005886,159.22387258382514,,,,,,,,,,,,,,,,,,,,,,,,,,,,,,,2035764,001,2026-05-09_14h00.47.586,false_memory_experiment,,2026.1.3,120.03889300927739,2026-05-09 14h00.47.687285 +0300,
2,12:24,5:10,1,1,0,2,tatlı,çikolata,TR,space,0.7563749998807907,None,,,,,,,,,,,,,,,0,2,2,1,0,1,1,1,,,,,,,,,159.23132500005886,,,,,,,,,,,,,,,,,159.22568587493151,159.23132500005886,160.72298070881516,160.71558095887303,,,,,,,,,,,,,,,,,,,,,,,,,,,,,,,2035764,001,2026-05-09_14h00.47.586,false_memory_experiment,,2026.1.3,120.03889300927739,2026-05-09 14h00.47.687285 +0300,
2,12:24,5:10,2,2,0,2,tatlı,pasta,TR,space,0.7563749998807907,None,,,,,,,,,,,,,,,0,2,2,1,0,2,2,2,,,,,,,,,160.72298070881516,,,,,,,,,,,,,,,,,160.71660958370194,160.72298070881516,162.21466162474826,162.20722174970433,,,,,,,,,,,,,,,,,,,,,,,,,,,,,,,2035764,001,2026-05-09_14h00.47.586,false_memory_experiment,,2026.1.3,120.03889300927739,2026-05-09 14h00.47.687285 +0300,
2,12:24,5:10,3,3,0,2,tatlı,bal,TR,space,0.7563749998807907,None,,,,,,,,,,,,,,,0,2,2,1,0,3,3,3,,,,,,,,,162.21466162474826,,,,,,,,,,,,,,,,,162.20814470900223,162.22299024974927,163.71466345898807,163.70722074992955,,,,,,,,,,,,,,,,,,,,,,,,,,,,,,,2035764,001,2026-05-09_14h00.47.586,false_memory_experiment,,2026.1.3,120.03889300927739,2026-05-09 14h00.47.687285 +0300,
2,12:24,5:10,4,4,0,2,tatlı,reçel,TR,space,0.7563749998807907,None,,,,,,,,,,,,,,,0,2,2,1,0,4,4,4,,,,,,,,,163.71466345898807,,,,,,,,,,,,,,,,,163.70822095870972,163.72302887495607,165.2146604587324,165.20718095870689,,,,,,,,,,,,,,,,,,,,,,,,,,,,,,,2035764,001,2026-05-09_14h00.47.586,false_memory_experiment,,2026.1.3,120.03889300927739,2026-05-09 14h00.47.687285 +0300,
2,12:24,5:10,5,5,0,2,tatlı,kek,TR,space,0.7563749998807907,None,,,,,,,,,,,,,,,0,2,2,1,0,5,5,5,,,,,,,,,165.2146604587324,,,,,,,,,,,,,,,,,165.2081330837682,165.22302804188803,166.71469391696155,166.70718458388,,,,,,,,,,,,,,,,,,,,,,,,,,,,,,,2035764,001,2026-05-09_14h00.47.586,false_memory_experiment,,2026.1.3,120.03889300927739,2026-05-09 14h00.47.687285 +0300,
2,12:24,5:10,6,6,0,2,tatlı,kurabiye,TR,space,0.7563749998807907,None,,,,,,,,,,,,,,,0,2,2,1,0,6,6,6,,,,,,,,,166.71469391696155,,,,,,,,,,,,,,,,,166.7081765420735,166.7229923750274,168.2147039999254,168.2071787500754,,,,,,,,,,,,,,,,,,,,,,,,,,,,,,,2035764,001,2026-05-09_14h00.47.586,false_memory_experiment,,2026.1.3,120.03889300927739,2026-05-09 14h00.47.687285 +0300,
2,12:24,5:10,7,7,0,2,tatlı,dondurma,TR,space,0.7563749998807907,None,,,,,,,,,,,,,,,0,2,2,1,0,7,7,7,,,,,,,,,168.2147039999254,,,,,,,,,,,,,,,,,168.20819083368406,168.2229672917165,169.7146573746577,169.7072126250714,,,,,,,,,,,,,,,,,,,,,,,,,,,,,,,2035764,001,2026-05-09_14h00.47.586,false_memory_experiment,,2026.1.3,120.03889300927739,2026-05-09 14h00.47.687285 +0300,
2,12:24,5:10,8,8,0,2,tatlı,gofret,TR,space,0.7563749998807907,None,,,,,,,,,,,,,,,0,2,2,1,0,8,8,8,,,,,,,,,169.7146573746577,,,,,,,,,,,,,,,,,169.70815695868805,169.72298879176378,171.21465562470257,171.20720079168677,,,,,,,,,,,,,,,,,,,,,,,,,,,,,,,2035764,001,2026-05-09_14h00.47.586,false_memory_experiment,,2026.1.3,120.03889300927739,2026-05-09 14h00.47.687285 +0300,
2,12:24,5:10,9,9,0,2,tatlı,lokum,TR,space,0.7563749998807907,None,,,,,,,,,,,,,,,0,2,2,1,0,9,9,9,,,,,,,,,171.21465562470257,,,,,,,,,,,,,,,,,171.20815166691318,171.22302316688,172.71466033393517,172.70721979206428,,,,,,,,,,,,,,,,,,,,,,,,,,,,,,,2035764,001,2026-05-09_14h00.47.586,false_memory_experiment,,2026.1.3,120.03889300927739,2026-05-09 14h00.47.687285 +0300,
2,12:24,5:10,10,10,0,2,tatlı,şerbet,TR,space,0.7563749998807907,None,,,,,,,,,,,,,,,0,2,2,1,0,10,10,10,,,,,,,,,172.71466033393517,,,,,,,,,,,,,,,,,172.70825679181144,172.72303708363324,174.21468504192308,174.20724374987185,,,,,,,,,,,,,,,,,,,,,,,,,,,,,,,2035764,001,2026-05-09_14h00.47.586,false_memory_experiment,,2026.1.3,120.03889300927739,2026-05-09 14h00.47.687285 +0300,
2,12:24,5:10,11,11,0,2,tatlı,meyve,TR,space,0.7563749998807907,None,,,,,,,,,,,,,,,0,2,2,1,0,11,11,11,,,,,,,,,174.21468504192308,,,,,,,,,,,,,,,,,174.20833920873702,174.22299162484705,175.94814924988896,175.70766620896757,,,,,,,,,,,,,,,,,,,,,,,,,,,,,,,2035764,001,2026-05-09_14h00.47.586,false_memory_experiment,,2026.1.3,120.03889300927739,2026-05-09 14h00.47.687285 +0300,
2,12:24,5:10,0,0,0,,,,,space,0.7563749998807907,None,40 - 22 = 19,left,left,1.551018750295043,None,,,,,,,,,,0,2,2,1,,,,,0,0,0,24,,,,,175.94814924988896,,,,,,,,,,,,,,,,,,,,,175.7090084166266,175.70904158381745,175.93822541693226,175.94814924988896,175.94814924988896,175.94814924988896,177.50765170902014,left,1.551018750295043,None,,,,,,,,,,,,,,,,,,,,,2035764,001,2026-05-09_14h00.47.586,false_memory_experiment,,2026.1.3,120.03889300927739,2026-05-09 14h00.47.687285 +0300,
2,12:24,5:10,1,1,0,,,,,space,0.7563749998807907,None,13 - 9 = 4,right,right,1.2800441249273717,None,,,,,,,,,,0,2,2,1,,,,,0,1,1,1,,,,,177.51469074981287,,,,,,,,,,,,,,,,,,,,,,,177.50884158397093,177.51469074981287,177.51469074981287,177.51469074981287,178.7992392918095,right,1.2800441249273717,None,,,,,,,,,,,,,,,,,,,,,2035764,001,2026-05-09_14h00.47.586,false_memory_experiment,,2026.1.3,120.03889300927739,2026-05-09 14h00.47.687285 +0300,
2,12:24,5:10,2,2,0,,,,,space,0.7563749998807907,None,38 + 43 = 81,right,right,1.9463555412366986,None,,,,,,,,,,0,2,2,1,,,,,0,2,2,27,,,,,178.8063363339752,,,,,,,,,,,,,,,,,,,,,,,178.80035658366978,178.8063363339752,178.8063363339752,178.8063363339752,180.75781324971467,right,1.9463555412366986,None,,,,,,,,,,,,,,,,,,,,,2035764,001,2026-05-09_14h00.47.586,false_memory_experiment,,2026.1.3,120.03889300927739,2026-05-09 14h00.47.687285 +0300,
2,12:24,5:10,3,3,0,,,,,space,0.7563749998807907,None,46 - 24 = 25,left,left,1.9639703752472997,None,,,,,,,,,,0,2,2,1,,,,,0,3,3,2,,,,,180.76465604174882,,,,,,,,,,,,,,,,,,,,,,,180.75898099970073,180.76465604174882,180.76465604174882,180.76465604174882,182.73303470900282,left,1.9639703752472997,None,,,,,,,,,,,,,,,,,,,,,2035764,001,2026-05-09_14h00.47.586,false_memory_experiment,,2026.1.3,120.03889300927739,2026-05-09 14h00.47.687285 +0300,
2,12:24,5:10,4,4,0,,,,,space,0.7563749998807907,None,11 + 17 = 28,right,right,1.1928945002146065,None,,,,,,,,,,0,2,2,1,,,,,0,4,4,30,,,,,182.73966133408248,,,,,,,,,,,,,,,,,,,,,,,182.73417637497187,182.73966133408248,182.73966133408248,182.73966133408248,183.9408498746343,right,1.1928945002146065,None,,,,,,,,,,,,,,,,,,,,,2035764,001,2026-05-09_14h00.47.586,false_memory_experiment,,2026.1.3,120.03889300927739,2026-05-09 14h00.47.687285 +0300,
2,12:24,5:10,5,5,0,,,,,space,0.7563749998807907,None,28 + 42 = 69,left,left,1.4565740833058953,None,,,,,,,,,,0,2,2,1,,,,,0,5,5,36,,,,,183.9479853748344,,,,,,,,,,,,,,,,,,,,,,,183.9419817919843,183.9479853748344,183.9479853748344,183.9479853748344,185.40768933389336,left,1.4565740833058953,None,,,,,,,,,,,,,,,,,,,,,2035764,001,2026-05-09_14h00.47.586,false_memory_experiment,,2026.1.3,120.03889300927739,2026-05-09 14h00.47.687285 +0300,
2,12:24,5:10,6,6,0,,,,,space,0.7563749998807907,None,22 - 16 = 6,right,right,1.6047590002417564,None,,,,,,,,,,0,2,2,1,,,,,0,6,6,37,,,,,185.4146964168176,,,,,,,,,,,,,,,,,,,,,,,185.40890437504277,185.4146964168176,185.4146964168176,185.4146964168176,187.02438104199246,right,1.6047590002417564,None,,,,,,,,,,,,,,,,,,,,,2035764,001,2026-05-09_14h00.47.586,false_memory_experiment,,2026.1.3,120.03889300927739,2026-05-09 14h00.47.687285 +0300,
2,12:24,5:10,7,7,0,,,,,space,0.7563749998807907,None,11 + 10 = 21,right,right,1.5880621667020023,None,,,,,,,,,,0,2,2,1,,,,,0,7,7,19,,,,,187.031380249653,,,,,,,,,,,,,,,,,,,,,,,187.02554924972355,187.031380249653,187.031380249653,187.031380249653,188.62430320866406,right,1.5880621667020023,None,,,,,,,,,,,,,,,,,,,,,2035764,001,2026-05-09_14h00.47.586,false_memory_experiment,,2026.1.3,120.03889300927739,2026-05-09 14h00.47.687285 +0300,
2,12:24,5:10,8,8,0,,,,,space,0.7563749998807907,None,12 - 11 = 1,right,right,0.859112249687314,None,,,,,,,,,,0,2,2,1,,,,,0,8,8,38,,,,,188.63132674992085,,,,,,,,,,,,,,,,,,,,,,,188.62541945884004,188.63132674992085,188.63132674992085,188.63132674992085,189.49892754200846,right,0.859112249687314,None,,,,,,,,,,,,,,,,,,,,,2035764,001,2026-05-09_14h00.47.586,false_memory_experiment,,2026.1.3,120.03889300927739,2026-05-09 14h00.47.687285 +0300,
2,12:24,5:10,9,9,0,,,,,space,0.7563749998807907,None,10 + 7 = 17,right,right,0.92699075024575,None,,,,,,,,,,0,2,2,1,,,,,0,9,9,9,,,,,189.50636216672137,,,,,,,,,,,,,,,,,,,,,,,189.50005866680294,189.50636216672137,189.50636216672137,189.50636216672137,190.44088033400476,right,0.92699075024575,None,,,,,,,,,,,,,,,,,,,,,2035764,001,2026-05-09_14h00.47.586,false_memory_experiment,,2026.1.3,120.03889300927739,2026-05-09 14h00.47.687285 +0300,
2,12:24,5:10,10,10,0,,,,,space,0.7563749998807907,None,32 + 41 = 70,left,None,,,,,,,,,,,,0,2,2,1,,,,,0,10,10,34,,,,,190.44804133381695,,,,,,,,,,,,,,,,,,,,,,,190.4421212086454,190.44804133381695,190.44804133381695,190.44804133381695,190.71903166687116,None,,,,,,,,,,,,,,,,,,,,,,,2035764,001,2026-05-09_14h00.47.586,false_memory_experiment,,2026.1.3,120.03889300927739,2026-05-09 14h00.47.687285 +0300,
2,12:24,5:10,0,0,0,2,,,TR,space,0.7563749998807907,None,,left,,,,kalem,distractor,space,3.0236253328621387,None,left,1,2.131567666772753,None,0,2,2,1,,,,,,,,,0,0,0,2,193.76470133382827,,,,,,,,,,,,,,,,,,,,,,,,,,,,,,,190.72041445877403,190.72268870892003,190.72268870892003,193.74931899970397,space,3.0236253328621387,None,193.75574341695756,193.76470133382827,193.76470133382827,193.76470133382827,195.89934274973348,left,1,2.131567666772753,None,,,,,2035764,001,2026-05-09_14h00.47.586,false_memory_experiment,,2026.1.3,120.03889300927739,2026-05-09 14h00.47.687285 +0300,
2,12:24,5:10,1,1,0,2,,,TR,space,0.7563749998807907,None,,left,,,,saat,distractor,space,3.0236253328621387,None,left,1,0.882861000020057,None,0,2,2,1,,,,,,,,,0,1,1,3,195.90636958368123,,,,,,,,,,,,,,,,,,,,,,,,,,,,,,,,,,,,,,195.90028204163536,195.90636958368123,195.90636958368123,195.90636958368123,196.7908447086811,left,1,0.882861000020057,None,,,,,2035764,001,2026-05-09_14h00.47.586,false_memory_experiment,,2026.1.3,120.03889300927739,2026-05-09 14h00.47.687285 +0300,
2,12:24,5:10,2,2,0,2,,,TR,space,0.7563749998807907,None,,left,,,,tatlı,critical_lure,space,3.0236253328621387,None,left,1,1.434113834053278,None,0,2,2,1,,,,,,,,,0,2,2,4,196.79801183380187,,,,,,,,,,,,,,,,,,,,,,,,,,,,,,,,,,,,,,196.79186216695234,196.79801183380187,196.79801183380187,196.79801183380187,198.23248729202896,left,1,1.434113834053278,None,,,,,2035764,001,2026-05-09_14h00.47.586,false_memory_experiment,,2026.1.3,120.03889300927739,2026-05-09 14h00.47.687285 +0300,
2,12:24,5:10,3,3,0,2,,,TR,space,0.7563749998807907,None,,right,,,,bal,old,space,3.0236253328621387,None,right,1,0.9335421249270439,None,0,2,2,1,,,,,,,,,0,3,3,1,198.23963679187,,,,,,,,,,,,,,,,,,,,,,,,,,,,,,,,,,,,,,198.23335512494668,198.23963679187,198.23963679187,198.23963679187,199.17413474991918,right,1,0.9335421249270439,None,,,,,2035764,001,2026-05-09_14h00.47.586,false_memory_experiment,,2026.1.3,120.03889300927739,2026-05-09 14h00.47.687285 +0300,
2,12:24,5:10,4,4,0,2,,,TR,space,0.7563749998807907,None,,right,,,,şeker,old,space,3.0236253328621387,None,right,1,0.7997758332639933,None,0,2,2,1,,,,,,,,,0,4,4,0,199.1813521250151,,,,,,,,,,,,,,,,,,,,,,,,,,,,,,,,,,,,,,199.17517145862803,199.1813521250151,199.1813521250151,199.1813521250151,199.98240241687745,right,1,0.7997758332639933,None,,,,,2035764,001,2026-05-09_14h00.47.586,false_memory_experiment,,2026.1.3,120.03889300927739,2026-05-09 14h00.47.687285 +0300,
2,12:24,5:10,2,2,0,,,,,space,0.7563749998807907,None,,,,,,,,space,3.0236253328621387,None,,,,,0,2,2,1,,,,,,,,,,,,,,,,,,,,,,,,,,,,,,,,,,,,,,,,,,,,,,,,,,,,,,,,,,,,,,,,2035764,001,2026-05-09_14h00.47.586,false_memory_experiment,,2026.1.3,120.03889300927739,2026-05-09 14h00.47.687285 +0300,
6,60:72,25:30,0,0,0,6,cold,snow,EN,space,0.8604032504372299,None,,,,,,,,,,,,,,,0,3,3,5,0,0,0,0,,,,,,,,,200.87300916668028,,,,,,,,,,199.98339162487537,199.9896614169702,199.9896614169702,200.85752041684464,space,0.8604032504372299,None,200.86632279166952,200.87300916668028,202.36466050008312,202.3571820417419,,,,,,,,,,,,,,,,,,,,,,,,,,,,,,,2035764,001,2026-05-09_14h00.47.586,false_memory_experiment,,2026.1.3,120.03889300927739,2026-05-09 14h00.47.687285 +0300,
6,60:72,25:30,1,1,0,6,cold,ice,EN,space,0.8604032504372299,None,,,,,,,,,,,,,,,0,3,3,5,0,1,1,1,,,,,,,,,202.36466050008312,,,,,,,,,,,,,,,,,202.35802287468687,202.36466050008312,203.85632891673595,203.84881045902148,,,,,,,,,,,,,,,,,,,,,,,,,,,,,,,2035764,001,2026-05-09_14h00.47.586,false_memory_experiment,,2026.1.3,120.03889300927739,2026-05-09 14h00.47.687285 +0300,
6,60:72,25:30,2,2,0,6,cold,winter,EN,space,0.8604032504372299,None,,,,,,,,,,,,,,,0,3,3,5,0,2,2,2,,,,,,,,,203.85632891673595,,,,,,,,,,,,,,,,,203.84970891708508,203.85632891673595,205.34797062491998,205.34054487477988,,,,,,,,,,,,,,,,,,,,,,,,,,,,,,,2035764,001,2026-05-09_14h00.47.586,false_memory_experiment,,2026.1.3,120.03889300927739,2026-05-09 14h00.47.687285 +0300,
6,60:72,25:30,3,3,0,6,cold,storm,EN,space,0.8604032504372299,None,,,,,,,,,,,,,,,0,3,3,5,0,3,3,3,,,,,,,,,205.34797062491998,,,,,,,,,,,,,,,,,205.34154054196551,205.3563252496533,206.84800254181027,206.8405559589155,,,,,,,,,,,,,,,,,,,,,,,,,,,,,,,2035764,001,2026-05-09_14h00.47.586,false_memory_experiment,,2026.1.3,120.03889300927739,2026-05-09 14h00.47.687285 +0300,
6,60:72,25:30,4,4,0,6,cold,shiver,EN,space,0.8604032504372299,None,,,,,,,,,,,,,,,0,3,3,5,0,4,4,4,,,,,,,,,206.84800254181027,,,,,,,,,,,,,,,,,206.84155229199678,206.8563110837713,208.34798654168844,208.3405116670765,,,,,,,,,,,,,,,,,,,,,,,,,,,,,,,2035764,001,2026-05-09_14h00.47.586,false_memory_experiment,,2026.1.3,120.03889300927739,2026-05-09 14h00.47.687285 +0300,
6,60:72,25:30,5,5,0,6,cold,arctic,EN,space,0.8604032504372299,None,,,,,,,,,,,,,,,0,3,3,5,0,5,5,5,,,,,,,,,208.34798654168844,,,,,,,,,,,,,,,,,208.3414958748035,208.35629416676238,209.84794758399948,209.84050966706127,,,,,,,,,,,,,,,,,,,,,,,,,,,,,,,2035764,001,2026-05-09_14h00.47.586,false_memory_experiment,,2026.1.3,120.03889300927739,2026-05-09 14h00.47.687285 +0300,
6,60:72,25:30,6,6,0,6,cold,weather,EN,space,0.8604032504372299,None,,,,,,,,,,,,,,,0,3,3,5,0,6,6,6,,,,,,,,,209.84794758399948,,,,,,,,,,,,,,,,,209.84142966708168,209.85628491686657,211.34794374974445,211.34052566671744,,,,,,,,,,,,,,,,,,,,,,,,,,,,,,,2035764,001,2026-05-09_14h00.47.586,false_memory_experiment,,2026.1.3,120.03889300927739,2026-05-09 14h00.47.687285 +0300,
6,60:72,25:30,7,7,0,6,cold,freeze,EN,space,0.8604032504372299,None,,,,,,,,,,,,,,,0,3,3,5,0,7,7,7,,,,,,,,,211.34794374974445,,,,,,,,,,,,,,,,,211.34147337498143,211.35631299996749,212.8479691669345,212.84049570886418,,,,,,,,,,,,,,,,,,,,,,,,,,,,,,,2035764,001,2026-05-09_14h00.47.586,false_memory_experiment,,2026.1.3,120.03889300927739,2026-05-09 14h00.47.687285 +0300,
6,60:72,25:30,8,8,0,6,cold,chill,EN,space,0.8604032504372299,None,,,,,,,,,,,,,,,0,3,3,5,0,8,8,8,,,,,,,,,212.8479691669345,,,,,,,,,,,,,,,,,212.84136174991727,212.8563162498176,214.34797791671008,214.34051874978468,,,,,,,,,,,,,,,,,,,,,,,,,,,,,,,2035764,001,2026-05-09_14h00.47.586,false_memory_experiment,,2026.1.3,120.03889300927739,2026-05-09 14h00.47.687285 +0300,
6,60:72,25:30,9,9,0,6,cold,frost,EN,space,0.8604032504372299,None,,,,,,,,,,,,,,,0,3,3,5,0,9,9,9,,,,,,,,,214.34797791671008,,,,,,,,,,,,,,,,,214.34150729188696,214.3563863746822,215.84799587493762,215.84048154205084,,,,,,,,,,,,,,,,,,,,,,,,,,,,,,,2035764,001,2026-05-09_14h00.47.586,false_memory_experiment,,2026.1.3,120.03889300927739,2026-05-09 14h00.47.687285 +0300,
6,60:72,25:30,10,10,0,6,cold,coat,EN,space,0.8604032504372299,None,,,,,,,,,,,,,,,0,3,3,5,0,10,10,10,,,,,,,,,215.84799587493762,,,,,,,,,,,,,,,,,215.8412786666304,215.85626637469977,217.34799624979496,217.34072079183534,,,,,,,,,,,,,,,,,,,,,,,,,,,,,,,2035764,001,2026-05-09_14h00.47.586,false_memory_experiment,,2026.1.3,120.03889300927739,2026-05-09 14h00.47.687285 +0300,
6,60:72,25:30,11,11,0,6,cold,gloves,EN,space,0.8604032504372299,None,,,,,,,,,,,,,,,0,3,3,5,0,11,11,11,,,,,,,,,217.34799624979496,,,,,,,,,,,,,,,,,217.34165858384222,217.3562743337825,219.06473491666839,218.84054787503555,,,,,,,,,,,,,,,,,,,,,,,,,,,,,,,2035764,001,2026-05-09_14h00.47.586,false_memory_experiment,,2026.1.3,120.03889300927739,2026-05-09 14h00.47.687285 +0300,
6,60:72,25:30,0,0,0,,,,,space,0.8604032504372299,None,19 - 15 = 3,left,left,1.6185774579644203,None,,,,,,,,,,0,3,3,5,,,,,0,0,0,7,,,,,219.06473491666839,,,,,,,,,,,,,,,,,,,,,218.84170629177243,218.84172779181972,219.05523887462914,219.06473491666839,219.06473491666839,219.06473491666839,220.69094929192215,left,1.6185774579644203,None,,,,,,,,,,,,,,,,,,,,,2035764,001,2026-05-09_14h00.47.586,false_memory_experiment,,2026.1.3,120.03889300927739,2026-05-09 14h00.47.687285 +0300,
6,60:72,25:30,1,1,0,,,,,space,0.8604032504372299,None,39 + 49 = 93,left,left,2.8038329160772264,None,,,,,,,,,,0,3,3,5,,,,,0,1,1,31,,,,,220.69796762475744,,,,,,,,,,,,,,,,,,,,,,,220.69214366702363,220.69796762475744,220.69796762475744,220.69796762475744,223.50784354191273,left,2.8038329160772264,None,,,,,,,,,,,,,,,,,,,,,2035764,001,2026-05-09_14h00.47.586,false_memory_experiment,,2026.1.3,120.03889300927739,2026-05-09 14h00.47.687285 +0300,
6,60:72,25:30,2,2,0,,,,,space,0.8604032504372299,None,39 - 15 = 26,left,left,1.7740770843811333,None,,,,,,,,,,0,3,3,5,,,,,0,2,2,11,,,,,223.5146712497808,,,,,,,,,,,,,,,,,,,,,,,223.50917270872742,223.5146712497808,223.5146712497808,223.5146712497808,225.2908988338895,left,1.7740770843811333,None,,,,,,,,,,,,,,,,,,,,,2035764,001,2026-05-09_14h00.47.586,false_memory_experiment,,2026.1.3,120.03889300927739,2026-05-09 14h00.47.687285 +0300,
6,60:72,25:30,3,3,0,,,,,space,0.8604032504372299,None,38 - 18 = 19,left,left,1.6457113749347627,None,,,,,,,,,,0,3,3,5,,,,,0,3,3,26,,,,,225.29795624967664,,,,,,,,,,,,,,,,,,,,,,,225.2921455418691,225.29795624967664,225.29795624967664,225.29795624967664,226.94921604171395,left,1.6457113749347627,None,,,,,,,,,,,,,,,,,,,,,2035764,001,2026-05-09_14h00.47.586,false_memory_experiment,,2026.1.3,120.03889300927739,2026-05-09 14h00.47.687285 +0300,
6,60:72,25:30,4,4,0,,,,,space,0.8604032504372299,None,25 + 28 = 50,left,left,1.3803407908417284,None,,,,,,,,,,0,3,3,5,,,,,0,4,4,3,,,,,226.95632979180664,,,,,,,,,,,,,,,,,,,,,,,226.95041499985382,226.95632979180664,226.95632979180664,226.95632979180664,228.34095874987543,left,1.3803407908417284,None,,,,,,,,,,,,,,,,,,,,,2035764,001,2026-05-09_14h00.47.586,false_memory_experiment,,2026.1.3,120.03889300927739,2026-05-09 14h00.47.687285 +0300,
6,60:72,25:30,5,5,0,,,,,space,0.8604032504372299,None,24 + 33 = 60,left,left,1.6146646672859788,None,,,,,,,,,,0,3,3,5,,,,,0,5,5,10,,,,,228.34796158364043,,,,,,,,,,,,,,,,,,,,,,,228.3421345418319,228.34796158364043,228.34796158364043,228.34796158364043,229.96582345897332,left,1.6146646672859788,None,,,,,,,,,,,,,,,,,,,,,2035764,001,2026-05-09_14h00.47.586,false_memory_experiment,,2026.1.3,120.03889300927739,2026-05-09 14h00.47.687285 +0300,
6,60:72,25:30,6,6,0,,,,,space,0.8604032504372299,None,11 + 17 = 28,right,right,1.7145770406350493,None,,,,,,,,,,0,3,3,5,,,,,0,6,6,30,,,,,229.97297754185274,,,,,,,,,,,,,,,,,,,,,,,229.96698933374137,229.97297754185274,229.97297754185274,229.97297754185274,231.69079204183072,right,1.7145770406350493,None,,,,,,,,,,,,,,,,,,,,,2035764,001,2026-05-09_14h00.47.586,false_memory_experiment,,2026.1.3,120.03889300927739,2026-05-09 14h00.47.687285 +0300,
6,60:72,25:30,7,7,0,,,,,space,0.8604032504372299,None,8 + 39 = 46,left,left,1.980558832641691,None,,,,,,,,,,0,3,3,5,,,,,0,7,7,0,,,,,231.69795587472618,,,,,,,,,,,,,,,,,,,,,,,231.69194916682318,231.69795587472618,231.69795587472618,231.69795587472618,233.68321004183963,left,1.980558832641691,None,,,,,,,,,,,,,,,,,,,,,2035764,001,2026-05-09_14h00.47.586,false_memory_experiment,,2026.1.3,120.03889300927739,2026-05-09 14h00.47.687285 +0300,
6,60:72,25:30,8,8,0,,,,,space,0.8604032504372299,None,25 + 26 = 46,left,None,,,,,,,,,,,,0,3,3,5,,,,,0,8,8,12,,,,,233.68963612476364,,,,,,,,,,,,,,,,,,,,,,,233.68438404193148,233.68963612476364,233.68963612476364,233.68963612476364,233.85160666704178,None,,,,,,,,,,,,,,,,,,,,,,,2035764,001,2026-05-09_14h00.47.586,false_memory_experiment,,2026.1.3,120.03889300927739,2026-05-09 14h00.47.687285 +0300,
6,60:72,25:30,0,0,0,6,,,EN,space,0.8604032504372299,None,,left,,,,cold,critical_lure,space,2.802065041847527,None,right,0,2.9660143330693245,None,0,3,3,5,,,,,,,,,0,0,0,4,236.6813105000183,,,,,,,,,,,,,,,,,,,,,,,,,,,,,,,233.85306208394468,233.85634029190987,233.85634029190987,236.6659476668574,space,2.802065041847527,None,236.672346083913,236.6813105000183,236.6813105000183,236.6813105000183,239.64915216667578,right,0,2.9660143330693245,None,,,,,2035764,001,2026-05-09_14h00.47.586,false_memory_experiment,,2026.1.3,120.03889300927739,2026-05-09 14h00.47.687285 +0300,
6,60:72,25:30,1,1,0,6,,,EN,space,0.8604032504372299,None,,left,,,,table,distractor,space,2.802065041847527,None,left,1,0.9549811249598861,None,0,3,3,5,,,,,,,,,0,1,1,3,239.65632770908996,,,,,,,,,,,,,,,,,,,,,,,,,,,,,,,,,,,,,,239.65020799962804,239.65632770908996,239.65632770908996,239.65632770908996,240.61584808398038,left,1,0.9549811249598861,None,,,,,2035764,001,2026-05-09_14h00.47.586,false_memory_experiment,,2026.1.3,120.03889300927739,2026-05-09 14h00.47.687285 +0300,
6,60:72,25:30,2,2,0,6,,,EN,space,0.8604032504372299,None,,left,,,,cup,distractor,space,2.802065041847527,None,left,1,0.921308415941894,None,0,3,3,5,,,,,,,,,0,2,2,2,240.622974333819,,,,,,,,,,,,,,,,,,,,,,,,,,,,,,,,,,,,,,240.61668800003827,240.622974333819,240.622974333819,240.622974333819,241.54908849997446,left,1,0.921308415941894,None,,,,,2035764,001,2026-05-09_14h00.47.586,false_memory_experiment,,2026.1.3,120.03889300927739,2026-05-09 14h00.47.687285 +0300,
6,60:72,25:30,3,3,0,6,,,EN,space,0.8604032504372299,None,,right,,,,gloves,old,space,2.802065041847527,None,right,1,1.0049585406668484,None,0,3,3,5,,,,,,,,,0,3,3,1,241.5563011248596,,,,,,,,,,,,,,,,,,,,,,,,,,,,,,,,,,,,,,241.55003749998286,241.5563011248596,241.5563011248596,241.5563011248596,242.56599570903927,right,1,1.0049585406668484,None,,,,,2035764,001,2026-05-09_14h00.47.586,false_memory_experiment,,2026.1.3,120.03889300927739,2026-05-09 14h00.47.687285 +0300,
6,60:72,25:30,4,4,0,6,,,EN,space,0.8604032504372299,None,,right,,,,snow,old,space,2.802065041847527,None,right,1,1.1392738330177963,None,0,3,3,5,,,,,,,,,0,4,4,0,242.5729469587095,,,,,,,,,,,,,,,,,,,,,,,,,,,,,,,,,,,,,,242.56700508389622,242.5729469587095,242.5729469587095,242.5729469587095,243.71583937481046,right,1,1.1392738330177963,None,,,,,2035764,001,2026-05-09_14h00.47.586,false_memory_experiment,,2026.1.3,120.03889300927739,2026-05-09 14h00.47.687285 +0300,
6,60:72,25:30,3,3,0,,,,,space,0.8604032504372299,None,,,,,,,,space,2.802065041847527,None,,,,,0,3,3,5,,,,,,,,,,,,,,,,,,,,,,,,,,,,,,,,,,,,,,,,,,,,,,,,,,,,,,,,,,,,,,,,2035764,001,2026-05-09_14h00.47.586,false_memory_experiment,,2026.1.3,120.03889300927739,2026-05-09 14h00.47.687285 +0300,
5,48:60,20:25,0,0,0,5,sweet,sugar,EN,space,0.8192372499033809,None,,,,,,,,,,,,,,,0,4,4,4,0,0,0,0,,,,,,,,,244.56464404193684,,,,,,,,,,243.71687404206023,243.72293004207313,243.72293004207313,244.54922408377752,space,0.8192372499033809,None,244.55827045906335,244.56464404193684,246.05626370897517,246.0487954998389,,,,,,,,,,,,,,,,,,,,,,,,,,,,,,,2035764,001,2026-05-09_14h00.47.586,false_memory_experiment,,2026.1.3,120.03889300927739,2026-05-09 14h00.47.687285 +0300,
5,48:60,20:25,1,1,0,5,sweet,candy,EN,space,0.8192372499033809,None,,,,,,,,,,,,,,,0,4,4,4,0,1,1,1,,,,,,,,,246.05626370897517,,,,,,,,,,,,,,,,,246.04984699981287,246.05626370897517,247.54792616702616,247.54043950000778,,,,,,,,,,,,,,,,,,,,,,,,,,,,,,,2035764,001,2026-05-09_14h00.47.586,false_memory_experiment,,2026.1.3,120.03889300927739,2026-05-09 14h00.47.687285 +0300,
5,48:60,20:25,2,2,0,5,sweet,sour,EN,space,0.8192372499033809,None,,,,,,,,,,,,,,,0,4,4,4,0,2,2,2,,,,,,,,,247.54792616702616,,,,,,,,,,,,,,,,,247.54131395881996,247.54792616702616,249.0395662500523,249.03212908376008,,,,,,,,,,,,,,,,,,,,,,,,,,,,,,,2035764,001,2026-05-09_14h00.47.586,false_memory_experiment,,2026.1.3,120.03889300927739,2026-05-09 14h00.47.687285 +0300,
5,48:60,20:25,3,3,0,5,sweet,bitter,EN,space,0.8192372499033809,None,,,,,,,,,,,,,,,0,4,4,4,0,3,3,3,,,,,,,,,249.0395662500523,,,,,,,,,,,,,,,,,249.03308095876127,249.04793170886114,250.53958874987438,250.53210841678083,,,,,,,,,,,,,,,,,,,,,,,,,,,,,,,2035764,001,2026-05-09_14h00.47.586,false_memory_experiment,,2026.1.3,120.03889300927739,2026-05-09 14h00.47.687285 +0300,
5,48:60,20:25,4,4,0,5,sweet,chocolate,EN,space,0.8192372499033809,None,,,,,,,,,,,,,,,0,4,4,4,0,4,4,4,,,,,,,,,250.53958874987438,,,,,,,,,,,,,,,,,250.53309312462807,250.54795641684905,252.03963087499142,252.03211679169908,,,,,,,,,,,,,,,,,,,,,,,,,,,,,,,2035764,001,2026-05-09_14h00.47.586,false_memory_experiment,,2026.1.3,120.03889300927739,2026-05-09 14h00.47.687285 +0300,
5,48:60,20:25,5,5,0,5,sweet,taste,EN,space,0.8192372499033809,None,,,,,,,,,,,,,,,0,4,4,4,0,5,5,5,,,,,,,,,252.03963087499142,,,,,,,,,,,,,,,,,252.0333059169352,252.047892708797,253.5396380838938,253.53211329178885,,,,,,,,,,,,,,,,,,,,,,,,,,,,,,,2035764,001,2026-05-09_14h00.47.586,false_memory_experiment,,2026.1.3,120.03889300927739,2026-05-09 14h00.47.687285 +0300,
5,48:60,20:25,6,6,0,5,sweet,honey,EN,space,0.8192372499033809,None,,,,,,,,,,,,,,,0,4,4,4,0,6,6,6,,,,,,,,,253.5396380838938,,,,,,,,,,,,,,,,,253.53306070901453,253.54792012507096,255.0395796666853,255.03215641668066,,,,,,,,,,,,,,,,,,,,,,,,,,,,,,,2035764,001,2026-05-09_14h00.47.586,false_memory_experiment,,2026.1.3,120.03889300927739,2026-05-09 14h00.47.687285 +0300,
5,48:60,20:25,7,7,0,5,sweet,cake,EN,space,0.8192372499033809,None,,,,,,,,,,,,,,,0,4,4,4,0,7,7,7,,,,,,,,,255.0395796666853,,,,,,,,,,,,,,,,,255.03304870892316,255.04792595887557,256.5396013748832,256.53220204170793,,,,,,,,,,,,,,,,,,,,,,,,,,,,,,,2035764,001,2026-05-09_14h00.47.586,false_memory_experiment,,2026.1.3,120.03889300927739,2026-05-09 14h00.47.687285 +0300,
5,48:60,20:25,8,8,0,5,sweet,cookie,EN,space,0.8192372499033809,None,,,,,,,,,,,,,,,0,4,4,4,0,8,8,8,,,,,,,,,256.5396013748832,,,,,,,,,,,,,,,,,256.5331830000505,256.54793079197407,258.0395949166268,258.03209995897487,,,,,,,,,,,,,,,,,,,,,,,,,,,,,,,2035764,001,2026-05-09_14h00.47.586,false_memory_experiment,,2026.1.3,120.03889300927739,2026-05-09 14h00.47.687285 +0300,
5,48:60,20:25,9,9,0,5,sweet,dessert,EN,space,0.8192372499033809,None,,,,,,,,,,,,,,,0,4,4,4,0,9,9,9,,,,,,,,,258.0395949166268,,,,,,,,,,,,,,,,,258.03307454194874,258.04796291701496,259.5396269168705,259.5321018747054,,,,,,,,,,,,,,,,,,,,,,,,,,,,,,,2035764,001,2026-05-09_14h00.47.586,false_memory_experiment,,2026.1.3,120.03889300927739,2026-05-09 14h00.47.687285 +0300,
5,48:60,20:25,10,10,0,5,sweet,pie,EN,space,0.8192372499033809,None,,,,,,,,,,,,,,,0,4,4,4,0,10,10,10,,,,,,,,,259.5396269168705,,,,,,,,,,,,,,,,,259.53301825001836,259.54796299990267,261.03964041685686,261.0321189998649,,,,,,,,,,,,,,,,,,,,,,,,,,,,,,,2035764,001,2026-05-09_14h00.47.586,false_memory_experiment,,2026.1.3,120.03889300927739,2026-05-09 14h00.47.687285 +0300,
5,48:60,20:25,11,11,0,5,sweet,waffle,EN,space,0.8192372499033809,None,,,,,,,,,,,,,,,0,4,4,4,0,11,11,11,,,,,,,,,261.03964041685686,,,,,,,,,,,,,,,,,261.0333045418374,261.0479147499427,262.75634999992326,262.53214208362624,,,,,,,,,,,,,,,,,,,,,,,,,,,,,,,2035764,001,2026-05-09_14h00.47.586,false_memory_experiment,,2026.1.3,120.03889300927739,2026-05-09 14h00.47.687285 +0300,
5,48:60,20:25,0,0,0,,,,,space,0.8192372499033809,None,50 + 45 = 94,left,left,2.492734750267118,None,,,,,,,,,,0,4,4,4,,,,,0,0,0,6,,,,,262.75634999992326,,,,,,,,,,,,,,,,,,,,,262.53336437465623,262.53338633384556,262.74689291696995,262.75634999992326,262.75634999992326,262.75634999992326,265.2576385838911,left,2.492734750267118,None,,,,,,,,,,,,,,,,,,,,,2035764,001,2026-05-09_14h00.47.586,false_memory_experiment,,2026.1.3,120.03889300927739,2026-05-09 14h00.47.687285 +0300,
5,48:60,20:25,1,1,0,,,,,space,0.8192372499033809,None,41 + 19 = 65,left,left,1.4459291249513626,None,,,,,,,,,,0,4,4,4,,,,,0,1,1,23,,,,,265.26464133383706,,,,,,,,,,,,,,,,,,,,,,,265.25878404174,265.26464133383706,265.26464133383706,265.26464133383706,266.7159520420246,left,1.4459291249513626,None,,,,,,,,,,,,,,,,,,,,,2035764,001,2026-05-09_14h00.47.586,false_memory_experiment,,2026.1.3,120.03889300927739,2026-05-09 14h00.47.687285 +0300,
5,48:60,20:25,2,2,0,,,,,space,0.8192372499033809,None,11 + 10 = 21,right,right,1.1486318339593709,None,,,,,,,,,,0,4,4,4,,,,,0,2,2,19,,,,,266.72295612469316,,,,,,,,,,,,,,,,,,,,,,,266.717077458743,266.72295612469316,266.72295612469316,266.72295612469316,267.8741693338379,right,1.1486318339593709,None,,,,,,,,,,,,,,,,,,,,,2035764,001,2026-05-09_14h00.47.586,false_memory_experiment,,2026.1.3,120.03889300927739,2026-05-09 14h00.47.687285 +0300,
5,48:60,20:25,3,3,0,,,,,space,0.8192372499033809,None,17 - 13 = -1,left,left,1.8176187500357628,None,,,,,,,,,,0,4,4,4,,,,,0,3,3,28,,,,,267.8813335420564,,,,,,,,,,,,,,,,,,,,,,,267.87531508365646,267.8813335420564,267.8813335420564,267.8813335420564,269.7078221668489,left,1.8176187500357628,None,,,,,,,,,,,,,,,,,,,,,2035764,001,2026-05-09_14h00.47.586,false_memory_experiment,,2026.1.3,120.03889300927739,2026-05-09 14h00.47.687285 +0300,
5,48:60,20:25,4,4,0,,,,,space,0.8192372499033809,None,25 + 26 = 46,left,left,2.206844124943018,None,,,,,,,,,,0,4,4,4,,,,,0,4,4,12,,,,,269.714617874939,,,,,,,,,,,,,,,,,,,,,,,269.70898162480444,269.714617874939,269.714617874939,269.714617874939,271.9242945420556,left,2.206844124943018,None,,,,,,,,,,,,,,,,,,,,,2035764,001,2026-05-09_14h00.47.586,false_memory_experiment,,2026.1.3,120.03889300927739,2026-05-09 14h00.47.687285 +0300,
5,48:60,20:25,5,5,0,,,,,space,0.8192372499033809,None,35 - 26 = 7,left,left,1.7481122496537864,None,,,,,,,,,,0,4,4,4,,,,,0,5,5,17,,,,,271.93125749984756,,,,,,,,,,,,,,,,,,,,,,,271.9254489168525,271.93125749984756,271.93125749984756,271.93125749984756,273.6824939590879,left,1.7481122496537864,None,,,,,,,,,,,,,,,,,,,,,2035764,001,2026-05-09_14h00.47.586,false_memory_experiment,,2026.1.3,120.03889300927739,2026-05-09 14h00.47.687285 +0300,
5,48:60,20:25,6,6,0,,,,,space,0.8192372499033809,None,44 + 5 = 49,right,right,1.0687271254137158,None,,,,,,,,,,0,4,4,4,,,,,0,6,6,16,,,,,273.68964820867404,,,,,,,,,,,,,,,,,,,,,,,273.68381841666996,273.68964820867404,273.68964820867404,273.68964820867404,274.7658780417405,right,1.0687271254137158,None,,,,,,,,,,,,,,,,,,,,,2035764,001,2026-05-09_14h00.47.586,false_memory_experiment,,2026.1.3,120.03889300927739,2026-05-09 14h00.47.687285 +0300,
5,48:60,20:25,7,7,0,,,,,space,0.8192372499033809,None,46 - 24 = 25,left,left,2.35946191707626,None,,,,,,,,,,0,4,4,4,,,,,0,7,7,2,,,,,274.77291916683316,,,,,,,,,,,,,,,,,,,,,,,274.76703220885247,274.77291916683316,274.77291916683316,274.77291916683316,277.1408990416676,left,2.35946191707626,None,,,,,,,,,,,,,,,,,,,,,2035764,001,2026-05-09_14h00.47.586,false_memory_experiment,,2026.1.3,120.03889300927739,2026-05-09 14h00.47.687285 +0300,
5,48:60,20:25,8,8,0,,,,,space,0.8192372499033809,None,19 - 15 = 3,left,None,,,,,,,,,,,,0,4,4,4,,,,,0,8,8,7,,,,,277.1479287496768,,,,,,,,,,,,,,,,,,,,,,,277.1420282917097,277.1479287496768,277.1479287496768,277.1479287496768,277.543281708844,None,,,,,,,,,,,,,,,,,,,,,,,2035764,001,2026-05-09_14h00.47.586,false_memory_experiment,,2026.1.3,120.03889300927739,2026-05-09 14h00.47.687285 +0300,
5,48:60,20:25,0,0,0,5,,,EN,space,0.8192372499033809,None,,left,,,,phone,distractor,space,2.800218166783452,None,left,1,1.6785475420765579,None,0,4,4,4,,,,,,,,,0,0,0,3,280.36460862495005,,,,,,,,,,,,,,,,,,,,,,,,,,,,,,,277.54475050000474,277.547943667043,277.547943667043,280.34922720864415,space,2.800218166783452,None,280.3556527500041,280.36460862495005,280.36460862495005,280.36460862495005,282.04934929171577,left,1,1.6785475420765579,None,,,,,2035764,001,2026-05-09_14h00.47.586,false_memory_experiment,,2026.1.3,120.03889300927739,2026-05-09 14h00.47.687285 +0300,
5,48:60,20:25,1,1,0,5,,,EN,space,0.8192372499033809,None,,right,,,,sugar,old,space,2.800218166783452,None,right,1,0.9298929166980088,None,0,4,4,4,,,,,,,,,0,1,1,0,282.0562546248548,,,,,,,,,,,,,,,,,,,,,,,,,,,,,,,,,,,,,,282.0503529589623,282.0562546248548,282.0562546248548,282.0562546248548,282.99086470901966,right,1,0.9298929166980088,None,,,,,2035764,001,2026-05-09_14h00.47.586,false_memory_experiment,,2026.1.3,120.03889300927739,2026-05-09 14h00.47.687285 +0300,
5,48:60,20:25,2,2,0,5,,,EN,space,0.8192372499033809,None,,right,,,,honey,old,space,2.800218166783452,None,left,0,6.133686749730259,None,0,4,4,4,,,,,,,,,0,2,2,1,282.9979160418734,,,,,,,,,,,,,,,,,,,,,,,,,,,,,,,,,,,,,,282.9918237500824,282.9979160418734,282.9979160418734,282.9979160418734,289.13261337485164,left,0,6.133686749730259,None,,,,,2035764,001,2026-05-09_14h00.47.586,false_memory_experiment,,2026.1.3,120.03889300927739,2026-05-09 14h00.47.687285 +0300,
5,48:60,20:25,3,3,0,5,,,EN,space,0.8192372499033809,None,,left,,,,pen,distractor,space,2.800218166783452,None,left,1,2.878480499610305,None,0,4,4,4,,,,,,,,,0,3,3,2,289.1395988338627,,,,,,,,,,,,,,,,,,,,,,,,,,,,,,,,,,,,,,289.1335257086903,289.1395988338627,289.1395988338627,289.1395988338627,292.0244341250509,left,1,2.878480499610305,None,,,,,2035764,001,2026-05-09_14h00.47.586,false_memory_experiment,,2026.1.3,120.03889300927739,2026-05-09 14h00.47.687285 +0300,
5,48:60,20:25,4,4,0,5,,,EN,space,0.8192372499033809,None,,left,,,,sweet,critical_lure,space,2.800218166783452,None,left,1,1.9948067083023489,None,0,4,4,4,,,,,,,,,0,4,4,4,292.031235458795,,,,,,,,,,,,,,,,,,,,,,,,,,,,,,,,,,,,,,292.02544345892966,292.031235458795,292.031235458795,292.031235458795,294.03279229206964,left,1,1.9948067083023489,None,,,,,2035764,001,2026-05-09_14h00.47.586,false_memory_experiment,,2026.1.3,120.03889300927739,2026-05-09 14h00.47.687285 +0300,
5,48:60,20:25,4,4,0,,,,,space,0.8192372499033809,None,,,,,,,,space,2.800218166783452,None,,,,,0,4,4,4,,,,,,,,,,,,,,,,,,,,,,,,,,,,,,,,,,,,,,,,,,,,,,,,,,,,,,,,,,,,,,,,2035764,001,2026-05-09_14h00.47.586,false_memory_experiment,,2026.1.3,120.03889300927739,2026-05-09 14h00.47.687285 +0300,
1,0:12,0:5,0,0,0,1,uyku,yatak,TR,space,0.845254291780293,None,,,,,,,,,,,,,,,0,5,5,0,0,0,0,0,,,,,,,,,294.90629495866597,,,,,,,,,,294.033838249743,294.0397039167583,294.0397039167583,294.8908862089738,space,0.845254291780293,None,294.8998420420103,294.90629495866597,296.39793299976736,296.3907531667501,,,,,,,,,,,,,,,,,,,,,,,,,,,,,,,2035764,001,2026-05-09_14h00.47.586,false_memory_experiment,,2026.1.3,120.03889300927739,2026-05-09 14h00.47.687285 +0300,
1,0:12,0:5,1,1,0,1,uyku,rüya,TR,space,0.845254291780293,None,,,,,,,,,,,,,,,0,5,5,0,0,1,1,1,,,,,,,,,296.39793299976736,,,,,,,,,,,,,,,,,296.39165095891804,296.39793299976736,297.8895747917704,297.8821912086569,,,,,,,,,,,,,,,,,,,,,,,,,,,,,,,2035764,001,2026-05-09_14h00.47.586,false_memory_experiment,,2026.1.3,120.03889300927739,2026-05-09 14h00.47.687285 +0300,
1,0:12,0:5,2,2,0,1,uyku,yastık,TR,space,0.845254291780293,None,,,,,,,,,,,,,,,0,5,5,0,0,2,2,2,,,,,,,,,297.8895747917704,,,,,,,,,,,,,,,,,297.88329645898193,297.8895747917704,299.3812999166548,299.37387024983764,,,,,,,,,,,,,,,,,,,,,,,,,,,,,,,2035764,001,2026-05-09_14h00.47.586,false_memory_experiment,,2026.1.3,120.03889300927739,2026-05-09 14h00.47.687285 +0300,
1,0:12,0:5,3,3,0,1,uyku,gece,TR,space,0.845254291780293,None,,,,,,,,,,,,,,,0,5,5,0,0,3,3,3,,,,,,,,,299.3812999166548,,,,,,,,,,,,,,,,,299.3748367917724,299.38960450002924,300.88123899977654,300.8738112500869,,,,,,,,,,,,,,,,,,,,,,,,,,,,,,,2035764,001,2026-05-09_14h00.47.586,false_memory_experiment,,2026.1.3,120.03889300927739,2026-05-09 14h00.47.687285 +0300,
1,0:12,0:5,4,4,0,1,uyku,yorgan,TR,space,0.845254291780293,None,,,,,,,,,,,,,,,0,5,5,0,0,4,4,4,,,,,,,,,300.88123899977654,,,,,,,,,,,,,,,,,300.8750024167821,300.88964566681534,302.3812816250138,302.37378070876,,,,,,,,,,,,,,,,,,,,,,,,,,,,,,,2035764,001,2026-05-09_14h00.47.586,false_memory_experiment,,2026.1.3,120.03889300927739,2026-05-09 14h00.47.687285 +0300,
1,0:12,0:5,5,5,0,1,uyku,battaniye,TR,space,0.845254291780293,None,,,,,,,,,,,,,,,0,5,5,0,0,5,5,5,,,,,,,,,302.3812816250138,,,,,,,,,,,,,,,,,302.3748738337308,302.3895698338747,303.88127479190007,303.87388412468135,,,,,,,,,,,,,,,,,,,,,,,,,,,,,,,2035764,001,2026-05-09_14h00.47.586,false_memory_experiment,,2026.1.3,120.03889300927739,2026-05-09 14h00.47.687285 +0300,
1,0:12,0:5,6,6,0,1,uyku,dinlenmek,TR,space,0.845254291780293,None,,,,,,,,,,,,,,,0,5,5,0,0,6,6,6,,,,,,,,,303.88127479190007,,,,,,,,,,,,,,,,,303.87498079193756,303.889584583696,305.381207624916,305.37388420896605,,,,,,,,,,,,,,,,,,,,,,,,,,,,,,,2035764,001,2026-05-09_14h00.47.586,false_memory_experiment,,2026.1.3,120.03889300927739,2026-05-09 14h00.47.687285 +0300,
1,0:12,0:5,7,7,0,1,uyku,horlamak,TR,space,0.845254291780293,None,,,,,,,,,,,,,,,0,5,5,0,0,7,7,7,,,,,,,,,305.381207624916,,,,,,,,,,,,,,,,,305.3749771248549,305.38955691689625,306.8812646246515,306.8738284590654,,,,,,,,,,,,,,,,,,,,,,,,,,,,,,,2035764,001,2026-05-09_14h00.47.586,false_memory_experiment,,2026.1.3,120.03889300927739,2026-05-09 14h00.47.687285 +0300,
1,0:12,0:5,8,8,0,1,uyku,pijama,TR,space,0.845254291780293,None,,,,,,,,,,,,,,,0,5,5,0,0,8,8,8,,,,,,,,,306.8812646246515,,,,,,,,,,,,,,,,,306.8749356670305,306.8895899998024,308.381241499912,308.3738294588402,,,,,,,,,,,,,,,,,,,,,,,,,,,,,,,2035764,001,2026-05-09_14h00.47.586,false_memory_experiment,,2026.1.3,120.03889300927739,2026-05-09 14h00.47.687285 +0300,
1,0:12,0:5,9,9,0,1,uyku,yorgun,TR,space,0.845254291780293,None,,,,,,,,,,,,,,,0,5,5,0,0,9,9,9,,,,,,,,,308.381241499912,,,,,,,,,,,,,,,,,308.374847416766,308.38970704190433,309.8812844590284,309.8739740420133,,,,,,,,,,,,,,,,,,,,,,,,,,,,,,,2035764,001,2026-05-09_14h00.47.586,false_memory_experiment,,2026.1.3,120.03889300927739,2026-05-09 14h00.47.687285 +0300,
1,0:12,0:5,10,10,0,1,uyku,karanlık,TR,space,0.845254291780293,None,,,,,,,,,,,,,,,0,5,5,0,0,10,10,10,,,,,,,,,309.8812844590284,,,,,,,,,,,,,,,,,309.8750853748061,309.88973591662943,311.38138804165646,311.3738391669467,,,,,,,,,,,,,,,,,,,,,,,,,,,,,,,2035764,001,2026-05-09_14h00.47.586,false_memory_experiment,,2026.1.3,120.03889300927739,2026-05-09 14h00.47.687285 +0300,
1,0:12,0:5,11,11,0,1,uyku,lamba,TR,space,0.845254291780293,None,,,,,,,,,,,,,,,0,5,5,0,0,11,11,11,,,,,,,,,311.38138804165646,,,,,,,,,,,,,,,,,311.3748802919872,311.3895872500725,313.0980107090436,312.873821541667,,,,,,,,,,,,,,,,,,,,,,,,,,,,,,,2035764,001,2026-05-09_14h00.47.586,false_memory_experiment,,2026.1.3,120.03889300927739,2026-05-09 14h00.47.687285 +0300,
1,0:12,0:5,0,0,0,,,,,space,0.845254291780293,None,50 + 45 = 94,left,left,1.6530602499842644,None,,,,,,,,,,0,5,5,0,,,,,0,0,0,6,,,,,313.0980107090436,,,,,,,,,,,,,,,,,,,,,312.87511766701937,312.87514016684145,313.0878886668943,313.0980107090436,313.0980107090436,313.0980107090436,314.75763195892796,left,1.6530602499842644,None,,,,,,,,,,,,,,,,,,,,,2035764,001,2026-05-09_14h00.47.586,false_memory_experiment,,2026.1.3,120.03889300927739,2026-05-09 14h00.47.687285 +0300,
1,0:12,0:5,1,1,0,,,,,space,0.845254291780293,None,38 - 28 = 10,right,right,1.6908971667289734,None,,,,,,,,,,0,5,5,0,,,,,0,1,1,32,,,,,314.7647421248257,,,,,,,,,,,,,,,,,,,,,,,314.7588422917761,314.7647421248257,314.7647421248257,314.7647421248257,316.45764274988323,right,1.6908971667289734,None,,,,,,,,,,,,,,,,,,,,,2035764,001,2026-05-09_14h00.47.586,false_memory_experiment,,2026.1.3,120.03889300927739,2026-05-09 14h00.47.687285 +0300,
1,0:12,0:5,2,2,0,,,,,space,0.845254291780293,None,10 + 7 = 17,right,right,0.9390935422852635,None,,,,,,,,,,0,5,5,0,,,,,0,2,2,9,,,,,316.46452962467447,,,,,,,,,,,,,,,,,,,,,,,316.45902204187587,316.46452962467447,316.46452962467447,316.46452962467447,317.4080323749222,right,0.9390935422852635,None,,,,,,,,,,,,,,,,,,,,,2035764,001,2026-05-09_14h00.47.586,false_memory_experiment,,2026.1.3,120.03889300927739,2026-05-09 14h00.47.687285 +0300,
1,0:12,0:5,3,3,0,,,,,space,0.845254291780293,None,19 + 33 = 53,left,right,3.4369127922691405,None,,,,,,,,,,0,5,5,0,,,,,0,3,3,4,,,,,317.4145877920091,,,,,,,,,,,,,,,,,,,,,,,317.40921412501484,317.4145877920091,317.4145877920091,317.4145877920091,320.8576929997653,right,3.4369127922691405,None,,,,,,,,,,,,,,,,,,,,,2035764,001,2026-05-09_14h00.47.586,false_memory_experiment,,2026.1.3,120.03889300927739,2026-05-09 14h00.47.687285 +0300,
1,0:12,0:5,4,4,0,,,,,space,0.845254291780293,None,39 - 15 = 26,left,left,1.4648881661705673,None,,,,,,,,,,0,5,5,0,,,,,0,4,4,11,,,,,320.86457774974406,,,,,,,,,,,,,,,,,,,,,,,320.8590395837091,320.86457774974406,320.86457774974406,320.86457774974406,322.33251983392984,left,1.4648881661705673,None,,,,,,,,,,,,,,,,,,,,,2035764,001,2026-05-09_14h00.47.586,false_memory_experiment,,2026.1.3,120.03889300927739,2026-05-09 14h00.47.687285 +0300,
1,0:12,0:5,5,5,0,,,,,space,0.845254291780293,None,5 + 6 = 6,left,left,1.6866692081093788,None,,,,,,,,,,0,5,5,0,,,,,0,5,5,13,,,,,322.3397257500328,,,,,,,,,,,,,,,,,,,,,,,322.33385274978355,322.3397257500328,322.3397257500328,322.3397257500328,324.03251616703346,left,1.6866692081093788,None,,,,,,,,,,,,,,,,,,,,,2035764,001,2026-05-09_14h00.47.586,false_memory_experiment,,2026.1.3,120.03889300927739,2026-05-09 14h00.47.687285 +0300,
1,0:12,0:5,6,6,0,,,,,space,0.845254291780293,None,17 + 48 = 65,right,right,2.7717813751660287,None,,,,,,,,,,0,5,5,0,,,,,0,6,6,5,,,,,324.03954841708764,,,,,,,,,,,,,,,,,,,,,,,324.03371358383447,324.03954841708764,324.03954841708764,324.03954841708764,326.81596337491646,right,2.7717813751660287,None,,,,,,,,,,,,,,,,,,,,,2035764,001,2026-05-09_14h00.47.586,false_memory_experiment,,2026.1.3,120.03889300927739,2026-05-09 14h00.47.687285 +0300,
1,0:12,0:5,7,7,0,,,,,space,0.845254291780293,None,41 + 19 = 65,left,None,,,,,,,,,,,,0,5,5,0,,,,,0,7,7,23,,,,,326.82299087475985,,,,,,,,,,,,,,,,,,,,,,,326.81726787472144,326.82299087475985,326.82299087475985,326.82299087475985,327.8848391249776,None,,,,,,,,,,,,,,,,,,,,,,,2035764,001,2026-05-09_14h00.47.586,false_memory_experiment,,2026.1.3,120.03889300927739,2026-05-09 14h00.47.687285 +0300,
1,0:12,0:5,0,0,0,1,,,TR,space,0.845254291780293,None,,left,,,,uyku,critical_lure,space,2.3539378750137985,None,left,1,2.2665522499009967,None,0,5,5,0,,,,,,,,,0,0,0,4,330.26460162503645,,,,,,,,,,,,,,,,,,,,,,,,,,,,,,,327.8862385000102,327.8892770418897,327.8892770418897,330.2493504998274,space,2.3539378750137985,None,330.25566337490454,330.26460162503645,330.26460162503645,330.26460162503645,332.53256208403036,left,1,2.2665522499009967,None,,,,,2035764,001,2026-05-09_14h00.47.586,false_memory_experiment,,2026.1.3,120.03889300927739,2026-05-09 14h00.47.687285 +0300,
1,0:12,0:5,1,1,0,1,,,TR,space,0.845254291780293,None,,right,,,,yatak,old,space,2.3539378750137985,None,right,1,1.620433958247304,None,0,5,5,0,,,,,,,,,0,1,1,0,332.5396395837888,,,,,,,,,,,,,,,,,,,,,,,,,,,,,,,,,,,,,,332.5336034167558,332.5396395837888,332.5396395837888,332.5396395837888,334.1659864997491,right,1,1.620433958247304,None,,,,,2035764,001,2026-05-09_14h00.47.586,false_memory_experiment,,2026.1.3,120.03889300927739,2026-05-09 14h00.47.687285 +0300,
1,0:12,0:5,2,2,0,1,,,TR,space,0.845254291780293,None,,left,,,,sandalye,distractor,space,2.3539378750137985,None,left,1,1.0211525419726968,None,0,5,5,0,,,,,,,,,0,2,2,2,334.1729312087409,,,,,,,,,,,,,,,,,,,,,,,,,,,,,,,,,,,,,,334.16707870876417,334.1729312087409,334.1729312087409,334.1729312087409,335.19925916707143,left,1,1.0211525419726968,None,,,,,2035764,001,2026-05-09_14h00.47.586,false_memory_experiment,,2026.1.3,120.03889300927739,2026-05-09 14h00.47.687285 +0300,
1,0:12,0:5,3,3,0,1,,,TR,space,0.845254291780293,None,,left,,,,araba,distractor,space,2.3539378750137985,None,left,1,1.0257897907868028,None,0,5,5,0,,,,,,,,,0,3,3,3,335.2062739166431,,,,,,,,,,,,,,,,,,,,,,,,,,,,,,,,,,,,,,335.2002676250413,335.2062739166431,335.2062739166431,335.2062739166431,336.2326567498967,left,1,1.0257897907868028,None,,,,,2035764,001,2026-05-09_14h00.47.586,false_memory_experiment,,2026.1.3,120.03889300927739,2026-05-09 14h00.47.687285 +0300,
1,0:12,0:5,4,4,0,1,,,TR,space,0.845254291780293,None,,right,,,,lamba,old,space,2.3539378750137985,None,right,1,1.5634667910635471,None,0,5,5,0,,,,,,,,,0,4,4,1,336.2395385839045,,,,,,,,,,,,,,,,,,,,,,,,,,,,,,,,,,,,,,336.2336935000494,336.2395385839045,336.2395385839045,336.2395385839045,337.8075717086904,right,1,1.5634667910635471,None,,,,,2035764,001,2026-05-09_14h00.47.586,false_memory_experiment,,2026.1.3,120.03889300927739,2026-05-09 14h00.47.687285 +0300,
1,0:12,0:5,5,5,0,,,,,space,0.845254291780293,None,,,,,,,,space,2.3539378750137985,None,,,,,0,5,5,0,,,,,,,,,,,,,,,,,,,,,,,,,,,,,,,,,,,,,,,,,,,,,,,,,,,,,,,,,,,,,,,,2035764,001,2026-05-09_14h00.47.586,false_memory_experiment,,2026.1.3,120.03889300927739,2026-05-09 14h00.47.687285 +0300,
,,,,,,,,,,,,,,,,,,,,,,,,,,,,,,,,,,,,,,,,,,,,,,,,,,,,,,,,,,,,,,,,,,,,,,,,,,,,,,,,,,,,,,,,,,337.8086180840619,337.81475650006905,340.8063013749197,340.7988186250441,2035764,001,2026-05-09_14h00.47.586,false_memory_experiment,,2026.1.3,120.03889300927739,2026-05-09 14h00.47.687285 +0300,
