instructions.started,instructions.stopped,key_resp_instr.keys,key_resp_instr.rt,key_resp_instr.duration,participant,session,date,expName,psychopyVersion,OS,frameRate,start_set.started,start_set.stopped,key_resp_start_set.keys,key_resp_start_set.rt,key_resp_start_set.duration,study.started,study.stopped,study_loop.thisRepN,study_loop.thisTrialN,study_loop.thisN,study_loop.thisIndex,study_loop.ran,list_id,theme,study_word,language,timer.started,timer.stopped,distractor.started,distractor.stopped,key_resp.keys,key_resp.rt,key_resp.duration,distractor_loop.thisRepN,distractor_loop.thisTrialN,distractor_loop.thisN,distractor_loop.thisIndex,distractor_loop.ran,problem,correct_resp,start_test.started,start_test.stopped,key_resp_start_test.keys,key_resp_start_test.rt,key_resp_start_test.duration,test.started,test.stopped,key_resp_test.keys,key_resp_test.corr,key_resp_test.rt,key_resp_test.duration,test_loop.thisRepN,test_loop.thisTrialN,test_loop.thisN,test_loop.thisIndex,test_loop.ran,test_word,word_type,blocks_loop.thisRepN,blocks_loop.thisTrialN,blocks_loop.thisN,blocks_loop.thisIndex,blocks_loop.ran,block_id,study_rows,test_rows,end.started,end.stopped
0.0006,49.536,space,49.5184,,366852,001,2026-05-10_01h04.00.082,false_memory_experiment,2026.1.3,MacIntel,123.4567901,,,,,,,,,,,,,,,,,,,,,,,,,,,,,,,,,,,,,,,,,,,,,,,,,,,,,,,,,,
,,,,,366852,001,2026-05-10_01h04.00.082,false_memory_experiment,2026.1.3,MacIntel,123.4567901,49.5535,52.3031,space,2.7343,,52.3186,53.8032,0,0,0,0,1,5,sweet,sugar,EN,,,,,,,,,,,,,,,,,,,,,,,,,,,,,,,,,,,,,,,,,,
,,,,,366852,001,2026-05-10_01h04.00.082,false_memory_experiment,2026.1.3,MacIntel,123.4567901,,,,,,53.8045,55.3028,0,1,1,1,1,5,sweet,candy,EN,,,,,,,,,,,,,,,,,,,,,,,,,,,,,,,,,,,,,,,,,,
,,,,,366852,001,2026-05-10_01h04.00.082,false_memory_experiment,2026.1.3,MacIntel,123.4567901,,,,,,55.3041,56.8031,0,2,2,2,1,5,sweet,sour,EN,,,,,,,,,,,,,,,,,,,,,,,,,,,,,,,,,,,,,,,,,,
,,,,,366852,001,2026-05-10_01h04.00.082,false_memory_experiment,2026.1.3,MacIntel,123.4567901,,,,,,56.8047,58.3024,0,3,3,3,1,5,sweet,bitter,EN,,,,,,,,,,,,,,,,,,,,,,,,,,,,,,,,,,,,,,,,,,
,,,,,366852,001,2026-05-10_01h04.00.082,false_memory_experiment,2026.1.3,MacIntel,123.4567901,,,,,,58.3028,59.8029,0,4,4,4,1,5,sweet,chocolate,EN,,,,,,,,,,,,,,,,,,,,,,,,,,,,,,,,,,,,,,,,,,
,,,,,366852,001,2026-05-10_01h04.00.082,false_memory_experiment,2026.1.3,MacIntel,123.4567901,,,,,,59.8048,61.3024,0,5,5,5,1,5,sweet,taste,EN,,,,,,,,,,,,,,,,,,,,,,,,,,,,,,,,,,,,,,,,,,
,,,,,366852,001,2026-05-10_01h04.00.082,false_memory_experiment,2026.1.3,MacIntel,123.4567901,,,,,,61.3029,62.8017,0,6,6,6,1,5,sweet,honey,EN,,,,,,,,,,,,,,,,,,,,,,,,,,,,,,,,,,,,,,,,,,
,,,,,366852,001,2026-05-10_01h04.00.082,false_memory_experiment,2026.1.3,MacIntel,123.4567901,,,,,,62.8024,64.3028,0,7,7,7,1,5,sweet,cake,EN,,,,,,,,,,,,,,,,,,,,,,,,,,,,,,,,,,,,,,,,,,
,,,,,366852,001,2026-05-10_01h04.00.082,false_memory_experiment,2026.1.3,MacIntel,123.4567901,,,,,,64.3041,65.8029,0,8,8,8,1,5,sweet,cookie,EN,,,,,,,,,,,,,,,,,,,,,,,,,,,,,,,,,,,,,,,,,,
,,,,,366852,001,2026-05-10_01h04.00.082,false_memory_experiment,2026.1.3,MacIntel,123.4567901,,,,,,65.805,67.3023,0,9,9,9,1,5,sweet,dessert,EN,,,,,,,,,,,,,,,,,,,,,,,,,,,,,,,,,,,,,,,,,,
,,,,,366852,001,2026-05-10_01h04.00.082,false_memory_experiment,2026.1.3,MacIntel,123.4567901,,,,,,67.3043,68.8028,0,10,10,10,1,5,sweet,pie,EN,,,,,,,,,,,,,,,,,,,,,,,,,,,,,,,,,,,,,,,,,,
,,,,,366852,001,2026-05-10_01h04.00.082,false_memory_experiment,2026.1.3,MacIntel,123.4567901,,,,,,68.8045,70.3022,0,11,11,11,1,5,sweet,waffle,EN,,,,,,,,,,,,,,,,,,,,,,,,,,,,,,,,,,,,,,,,,,
,,,,,366852,001,2026-05-10_01h04.00.082,false_memory_experiment,2026.1.3,MacIntel,123.4567901,,,,,,,,,,,,,,,,,70.3033,70.3036,70.3705,72.7537,right,2.3674,,0,0,0,33,1,19 + 11 = 30,right,,,,,,,,,,,,,,,,,,,,,,,,,,,,
,,,,,366852,001,2026-05-10_01h04.00.082,false_memory_experiment,2026.1.3,MacIntel,123.4567901,,,,,,,,,,,,,,,,,,,72.757,74.5368,left,1.7693,,0,1,1,24,1,40 - 22 = 19,left,,,,,,,,,,,,,,,,,,,,,,,,,,,,
,,,,,366852,001,2026-05-10_01h04.00.082,false_memory_experiment,2026.1.3,MacIntel,123.4567901,,,,,,,,,,,,,,,,,,,74.5406,76.2119,left,1.6608,,0,2,2,3,1,25 + 28 = 50,left,,,,,,,,,,,,,,,,,,,,,,,,,,,,
,,,,,366852,001,2026-05-10_01h04.00.082,false_memory_experiment,2026.1.3,MacIntel,123.4567901,,,,,,,,,,,,,,,,,,,76.2148,81.4865,right,5.2568,,0,3,3,21,1,44 - 29 = 15,right,,,,,,,,,,,,,,,,,,,,,,,,,,,,
,,,,,366852,001,2026-05-10_01h04.00.082,false_memory_experiment,2026.1.3,MacIntel,123.4567901,,,,,,,,,,,,,,,,,,,81.4888,83.6784,left,2.1769,,0,4,4,23,1,41 + 19 = 65,left,,,,,,,,,,,,,,,,,,,,,,,,,,,,
,,,,,366852,001,2026-05-10_01h04.00.082,false_memory_experiment,2026.1.3,MacIntel,123.4567901,,,,,,,,,,,,,,,,,,,83.6808,85.3137,,,,0,5,5,15,1,5 + 32 = 42,left,,,,,,,,,,,,,,,,,,,,,,,,,,,,
,,,,,366852,001,2026-05-10_01h04.00.082,false_memory_experiment,2026.1.3,MacIntel,123.4567901,,,,,,,,,,,,,5,,,EN,,,,,,,,,,,,,,left,85.315,88.3111,space,2.9842,,88.315,90.3612,right,0,2.0374,,0,0,0,4,1,sweet,critical_lure,,,,,,,,,,
,,,,,366852,001,2026-05-10_01h04.00.082,false_memory_experiment,2026.1.3,MacIntel,123.4567901,,,,,,,,,,,,,5,,,EN,,,,,,,,,,,,,,right,,,,,,90.3625,91.4862,left,0,1.1113,,0,1,1,1,1,honey,old,,,,,,,,,,
,,,,,366852,001,2026-05-10_01h04.00.082,false_memory_experiment,2026.1.3,MacIntel,123.4567901,,,,,,,,,,,,,5,,,EN,,,,,,,,,,,,,,left,,,,,,91.4872,92.2613,left,1,0.7642,,0,2,2,3,1,phone,distractor,,,,,,,,,,
,,,,,366852,001,2026-05-10_01h04.00.082,false_memory_experiment,2026.1.3,MacIntel,123.4567901,,,,,,,,,,,,,5,,,EN,,,,,,,,,,,,,,left,,,,,,92.2625,92.9272,left,1,0.6573,,0,3,3,2,1,pen,distractor,,,,,,,,,,
,,,,,366852,001,2026-05-10_01h04.00.082,false_memory_experiment,2026.1.3,MacIntel,123.4567901,,,,,,,,,,,,,5,,,EN,,,,,,,,,,,,,,right,,,,,,92.9286,93.6775,right,1,0.7409,,0,4,4,0,1,sugar,old,,,,,,,,,,
,,,,,366852,001,2026-05-10_01h04.00.082,false_memory_experiment,2026.1.3,MacIntel,123.4567901,,,,,,,,,,,,,,,,,,,,,,,,,,,,,,,,,,,,,,,,,,,,,,,,,0,0,0,4,1,5,48:60,20:25,,
,,,,,366852,001,2026-05-10_01h04.00.082,false_memory_experiment,2026.1.3,MacIntel,123.4567901,93.678,94.7278,space,1.043,,94.7353,96.2276,0,0,0,0,1,6,cold,snow,EN,,,,,,,,,,,,,,,,,,,,,,,,,,,,,,,,,,,,,,,,,,
,,,,,366852,001,2026-05-10_01h04.00.082,false_memory_experiment,2026.1.3,MacIntel,123.4567901,,,,,,96.2289,97.7277,0,1,1,1,1,6,cold,ice,EN,,,,,,,,,,,,,,,,,,,,,,,,,,,,,,,,,,,,,,,,,,
,,,,,366852,001,2026-05-10_01h04.00.082,false_memory_experiment,2026.1.3,MacIntel,123.4567901,,,,,,97.7294,99.2277,0,2,2,2,1,6,cold,winter,EN,,,,,,,,,,,,,,,,,,,,,,,,,,,,,,,,,,,,,,,,,,
,,,,,366852,001,2026-05-10_01h04.00.082,false_memory_experiment,2026.1.3,MacIntel,123.4567901,,,,,,99.2294,100.7277,0,3,3,3,1,6,cold,storm,EN,,,,,,,,,,,,,,,,,,,,,,,,,,,,,,,,,,,,,,,,,,
,,,,,366852,001,2026-05-10_01h04.00.082,false_memory_experiment,2026.1.3,MacIntel,123.4567901,,,,,,100.7296,102.2277,0,4,4,4,1,6,cold,shiver,EN,,,,,,,,,,,,,,,,,,,,,,,,,,,,,,,,,,,,,,,,,,
,,,,,366852,001,2026-05-10_01h04.00.082,false_memory_experiment,2026.1.3,MacIntel,123.4567901,,,,,,102.2291,103.7276,0,5,5,5,1,6,cold,arctic,EN,,,,,,,,,,,,,,,,,,,,,,,,,,,,,,,,,,,,,,,,,,
,,,,,366852,001,2026-05-10_01h04.00.082,false_memory_experiment,2026.1.3,MacIntel,123.4567901,,,,,,103.7294,105.2275,0,6,6,6,1,6,cold,weather,EN,,,,,,,,,,,,,,,,,,,,,,,,,,,,,,,,,,,,,,,,,,
,,,,,366852,001,2026-05-10_01h04.00.082,false_memory_experiment,2026.1.3,MacIntel,123.4567901,,,,,,105.2292,106.7276,0,7,7,7,1,6,cold,freeze,EN,,,,,,,,,,,,,,,,,,,,,,,,,,,,,,,,,,,,,,,,,,
,,,,,366852,001,2026-05-10_01h04.00.082,false_memory_experiment,2026.1.3,MacIntel,123.4567901,,,,,,106.7291,108.2267,0,8,8,8,1,6,cold,chill,EN,,,,,,,,,,,,,,,,,,,,,,,,,,,,,,,,,,,,,,,,,,
,,,,,366852,001,2026-05-10_01h04.00.082,false_memory_experiment,2026.1.3,MacIntel,123.4567901,,,,,,108.2284,109.727,0,9,9,9,1,6,cold,frost,EN,,,,,,,,,,,,,,,,,,,,,,,,,,,,,,,,,,,,,,,,,,
,,,,,366852,001,2026-05-10_01h04.00.082,false_memory_experiment,2026.1.3,MacIntel,123.4567901,,,,,,109.7285,111.2278,0,10,10,10,1,6,cold,coat,EN,,,,,,,,,,,,,,,,,,,,,,,,,,,,,,,,,,,,,,,,,,
,,,,,366852,001,2026-05-10_01h04.00.082,false_memory_experiment,2026.1.3,MacIntel,123.4567901,,,,,,111.2295,112.7274,0,11,11,11,1,6,cold,gloves,EN,,,,,,,,,,,,,,,,,,,,,,,,,,,,,,,,,,,,,,,,,,
,,,,,366852,001,2026-05-10_01h04.00.082,false_memory_experiment,2026.1.3,MacIntel,123.4567901,,,,,,,,,,,,,,,,,112.7275,112.7275,112.7877,114.7776,left,1.9787,,0,0,0,13,1,5 + 6 = 6,left,,,,,,,,,,,,,,,,,,,,,,,,,,,,
,,,,,366852,001,2026-05-10_01h04.00.082,false_memory_experiment,2026.1.3,MacIntel,123.4567901,,,,,,,,,,,,,,,,,,,114.7783,117.9613,left,3.1761,,0,1,1,25,1,30 + 44 = 73,left,,,,,,,,,,,,,,,,,,,,,,,,,,,,
,,,,,366852,001,2026-05-10_01h04.00.082,false_memory_experiment,2026.1.3,MacIntel,123.4567901,,,,,,,,,,,,,,,,,,,117.9631,119.1026,right,1.1265,,0,2,2,33,1,19 + 11 = 30,right,,,,,,,,,,,,,,,,,,,,,,,,,,,,
,,,,,366852,001,2026-05-10_01h04.00.082,false_memory_experiment,2026.1.3,MacIntel,123.4567901,,,,,,,,,,,,,,,,,,,119.1035,120.5693,left,1.4545,,0,3,3,3,1,25 + 28 = 50,left,,,,,,,,,,,,,,,,,,,,,,,,,,,,
,,,,,366852,001,2026-05-10_01h04.00.082,false_memory_experiment,2026.1.3,MacIntel,123.4567901,,,,,,,,,,,,,,,,,,,120.5704,123.0103,right,2.4304,,0,4,4,37,1,22 - 16 = 6,right,,,,,,,,,,,,,,,,,,,,,,,,,,,,
,,,,,366852,001,2026-05-10_01h04.00.082,false_memory_experiment,2026.1.3,MacIntel,123.4567901,,,,,,,,,,,,,,,,,,,123.0112,124.536,left,1.5134,,0,5,5,34,1,32 + 41 = 70,left,,,,,,,,,,,,,,,,,,,,,,,,,,,,
,,,,,366852,001,2026-05-10_01h04.00.082,false_memory_experiment,2026.1.3,MacIntel,123.4567901,,,,,,,,,,,,,,,,,,,124.537,126.4695,right,1.9235,,0,6,6,8,1,50 - 18 = 32,right,,,,,,,,,,,,,,,,,,,,,,,,,,,,
,,,,,366852,001,2026-05-10_01h04.00.082,false_memory_experiment,2026.1.3,MacIntel,123.4567901,,,,,,,,,,,,,,,,,,,126.4708,127.7396,,,,0,7,7,36,1,28 + 42 = 69,left,,,,,,,,,,,,,,,,,,,,,,,,,,,,
,,,,,366852,001,2026-05-10_01h04.00.082,false_memory_experiment,2026.1.3,MacIntel,123.4567901,,,,,,,,,,,,,6,,,EN,,,,,,,,,,,,,,right,127.7399,129.5858,space,1.8375,,129.5921,130.611,right,1,1.008,,0,0,0,0,1,snow,old,,,,,,,,,,
,,,,,366852,001,2026-05-10_01h04.00.082,false_memory_experiment,2026.1.3,MacIntel,123.4567901,,,,,,,,,,,,,6,,,EN,,,,,,,,,,,,,,right,,,,,,130.6119,131.3858,left,0,0.7654,,0,1,1,1,1,gloves,old,,,,,,,,,,
,,,,,366852,001,2026-05-10_01h04.00.082,false_memory_experiment,2026.1.3,MacIntel,123.4567901,,,,,,,,,,,,,6,,,EN,,,,,,,,,,,,,,left,,,,,,131.3865,132.611,left,1,1.2164,,0,2,2,3,1,table,distractor,,,,,,,,,,
,,,,,366852,001,2026-05-10_01h04.00.082,false_memory_experiment,2026.1.3,MacIntel,123.4567901,,,,,,,,,,,,,6,,,EN,,,,,,,,,,,,,,left,,,,,,132.612,133.3028,left,1,0.6806,,0,3,3,2,1,cup,distractor,,,,,,,,,,
,,,,,366852,001,2026-05-10_01h04.00.082,false_memory_experiment,2026.1.3,MacIntel,123.4567901,,,,,,,,,,,,,6,,,EN,,,,,,,,,,,,,,left,,,,,,133.3039,134.4189,right,0,1.1034,,0,4,4,4,1,cold,critical_lure,,,,,,,,,,
,,,,,366852,001,2026-05-10_01h04.00.082,false_memory_experiment,2026.1.3,MacIntel,123.4567901,,,,,,,,,,,,,,,,,,,,,,,,,,,,,,,,,,,,,,,,,,,,,,,,,0,1,1,5,1,6,60:72,25:30,,
,,,,,366852,001,2026-05-10_01h04.00.082,false_memory_experiment,2026.1.3,MacIntel,123.4567901,134.4191,135.7441,space,1.318,,135.7502,137.2441,0,0,0,0,1,3,soğuk,kış,TR,,,,,,,,,,,,,,,,,,,,,,,,,,,,,,,,,,,,,,,,,,
,,,,,366852,001,2026-05-10_01h04.00.082,false_memory_experiment,2026.1.3,MacIntel,123.4567901,,,,,,137.2459,138.7433,0,1,1,1,1,3,soğuk,buz,TR,,,,,,,,,,,,,,,,,,,,,,,,,,,,,,,,,,,,,,,,,,
,,,,,366852,001,2026-05-10_01h04.00.082,false_memory_experiment,2026.1.3,MacIntel,123.4567901,,,,,,138.7451,140.2442,0,2,2,2,1,3,soğuk,kar,TR,,,,,,,,,,,,,,,,,,,,,,,,,,,,,,,,,,,,,,,,,,
,,,,,366852,001,2026-05-10_01h04.00.082,false_memory_experiment,2026.1.3,MacIntel,123.4567901,,,,,,140.2459,141.744,0,3,3,3,1,3,soğuk,üşümek,TR,,,,,,,,,,,,,,,,,,,,,,,,,,,,,,,,,,,,,,,,,,
,,,,,366852,001,2026-05-10_01h04.00.082,false_memory_experiment,2026.1.3,MacIntel,123.4567901,,,,,,141.7452,143.2442,0,4,4,4,1,3,soğuk,dondurucu,TR,,,,,,,,,,,,,,,,,,,,,,,,,,,,,,,,,,,,,,,,,,
,,,,,366852,001,2026-05-10_01h04.00.082,false_memory_experiment,2026.1.3,MacIntel,123.4567901,,,,,,143.2459,144.7442,0,5,5,5,1,3,soğuk,ayaz,TR,,,,,,,,,,,,,,,,,,,,,,,,,,,,,,,,,,,,,,,,,,
,,,,,366852,001,2026-05-10_01h04.00.082,false_memory_experiment,2026.1.3,MacIntel,123.4567901,,,,,,144.7458,146.2439,0,6,6,6,1,3,soğuk,titremek,TR,,,,,,,,,,,,,,,,,,,,,,,,,,,,,,,,,,,,,,,,,,
,,,,,366852,001,2026-05-10_01h04.00.082,false_memory_experiment,2026.1.3,MacIntel,123.4567901,,,,,,146.2455,147.7441,0,7,7,7,1,3,soğuk,derece,TR,,,,,,,,,,,,,,,,,,,,,,,,,,,,,,,,,,,,,,,,,,
,,,,,366852,001,2026-05-10_01h04.00.082,false_memory_experiment,2026.1.3,MacIntel,123.4567901,,,,,,147.7458,149.244,0,8,8,8,1,3,soğuk,hava,TR,,,,,,,,,,,,,,,,,,,,,,,,,,,,,,,,,,,,,,,,,,
,,,,,366852,001,2026-05-10_01h04.00.082,false_memory_experiment,2026.1.3,MacIntel,123.4567901,,,,,,149.2457,150.7441,0,9,9,9,1,3,soğuk,rüzgar,TR,,,,,,,,,,,,,,,,,,,,,,,,,,,,,,,,,,,,,,,,,,
,,,,,366852,001,2026-05-10_01h04.00.082,false_memory_experiment,2026.1.3,MacIntel,123.4567901,,,,,,150.7457,152.2438,0,10,10,10,1,3,soğuk,mont,TR,,,,,,,,,,,,,,,,,,,,,,,,,,,,,,,,,,,,,,,,,,
,,,,,366852,001,2026-05-10_01h04.00.082,false_memory_experiment,2026.1.3,MacIntel,123.4567901,,,,,,152.2455,153.7443,0,11,11,11,1,3,soğuk,eldiven,TR,,,,,,,,,,,,,,,,,,,,,,,,,,,,,,,,,,,,,,,,,,
,,,,,366852,001,2026-05-10_01h04.00.082,false_memory_experiment,2026.1.3,MacIntel,123.4567901,,,,,,,,,,,,,,,,,153.7445,153.7446,153.7972,155.1224,left,1.3145,,0,0,0,21,1,44 - 29 = 15,right,,,,,,,,,,,,,,,,,,,,,,,,,,,,
,,,,,366852,001,2026-05-10_01h04.00.082,false_memory_experiment,2026.1.3,MacIntel,123.4567901,,,,,,,,,,,,,,,,,,,155.1293,156.1464,left,1.0025,,0,1,1,13,1,5 + 6 = 6,left,,,,,,,,,,,,,,,,,,,,,,,,,,,,
,,,,,366852,001,2026-05-10_01h04.00.082,false_memory_experiment,2026.1.3,MacIntel,123.4567901,,,,,,,,,,,,,,,,,,,156.1525,156.88,right,0.7182,,0,2,2,33,1,19 + 11 = 30,right,,,,,,,,,,,,,,,,,,,,,,,,,,,,
,,,,,366852,001,2026-05-10_01h04.00.082,false_memory_experiment,2026.1.3,MacIntel,123.4567901,,,,,,,,,,,,,,,,,,,156.888,158.0802,right,1.1802,,0,3,3,9,1,10 + 7 = 17,right,,,,,,,,,,,,,,,,,,,,,,,,,,,,
,,,,,366852,001,2026-05-10_01h04.00.082,false_memory_experiment,2026.1.3,MacIntel,123.4567901,,,,,,,,,,,,,,,,,,,158.0881,159.3292,left,1.2276,,0,4,4,24,1,40 - 22 = 19,left,,,,,,,,,,,,,,,,,,,,,,,,,,,,
,,,,,366852,001,2026-05-10_01h04.00.082,false_memory_experiment,2026.1.3,MacIntel,123.4567901,,,,,,,,,,,,,,,,,,,159.3369,160.5134,left,1.1632,,0,5,5,34,1,32 + 41 = 70,left,,,,,,,,,,,,,,,,,,,,,,,,,,,,
,,,,,366852,001,2026-05-10_01h04.00.082,false_memory_experiment,2026.1.3,MacIntel,123.4567901,,,,,,,,,,,,,,,,,,,160.5204,162.1531,left,1.6202,,0,6,6,12,1,25 + 26 = 46,left,,,,,,,,,,,,,,,,,,,,,,,,,,,,
,,,,,366852,001,2026-05-10_01h04.00.082,false_memory_experiment,2026.1.3,MacIntel,123.4567901,,,,,,,,,,,,,,,,,,,162.1563,163.6448,right,1.4769,,0,7,7,18,1,18 + 6 = 24,right,,,,,,,,,,,,,,,,,,,,,,,,,,,,
,,,,,366852,001,2026-05-10_01h04.00.082,false_memory_experiment,2026.1.3,MacIntel,123.4567901,,,,,,,,,,,,,,,,,,,163.6475,165.1197,left,1.46,,0,8,8,26,1,38 - 18 = 19,left,,,,,,,,,,,,,,,,,,,,,,,,,,,,
,,,,,366852,001,2026-05-10_01h04.00.082,false_memory_experiment,2026.1.3,MacIntel,123.4567901,,,,,,,,,,,,,,,,,,,165.1228,166.5355,right,1.3988,,0,9,9,37,1,22 - 16 = 6,right,,,,,,,,,,,,,,,,,,,,,,,,,,,,
,,,,,366852,001,2026-05-10_01h04.00.082,false_memory_experiment,2026.1.3,MacIntel,123.4567901,,,,,,,,,,,,,,,,,,,166.5378,168.0866,left,1.5404,,0,10,10,0,1,8 + 39 = 46,left,,,,,,,,,,,,,,,,,,,,,,,,,,,,
,,,,,366852,001,2026-05-10_01h04.00.082,false_memory_experiment,2026.1.3,MacIntel,123.4567901,,,,,,,,,,,,,,,,,,,168.0898,168.756,,,,0,11,11,30,1,11 + 17 = 28,right,,,,,,,,,,,,,,,,,,,,,,,,,,,,
,,,,,366852,001,2026-05-10_01h04.00.082,false_memory_experiment,2026.1.3,MacIntel,123.4567901,,,,,,,,,,,,,3,,,TR,,,,,,,,,,,,,,left,168.7569,170.4109,space,1.6465,,170.4188,171.9858,left,1,1.5565,,0,0,0,2,1,bardak,distractor,,,,,,,,,,
,,,,,366852,001,2026-05-10_01h04.00.082,false_memory_experiment,2026.1.3,MacIntel,123.4567901,,,,,,,,,,,,,3,,,TR,,,,,,,,,,,,,,left,,,,,,171.9869,173.3439,right,0,1.3465,,0,1,1,4,1,soğuk,critical_lure,,,,,,,,,,
,,,,,366852,001,2026-05-10_01h04.00.082,false_memory_experiment,2026.1.3,MacIntel,123.4567901,,,,,,,,,,,,,3,,,TR,,,,,,,,,,,,,,right,,,,,,173.3453,174.1113,right,1,0.7558,,0,2,2,0,1,kış,old,,,,,,,,,,
,,,,,366852,001,2026-05-10_01h04.00.082,false_memory_experiment,2026.1.3,MacIntel,123.4567901,,,,,,,,,,,,,3,,,TR,,,,,,,,,,,,,,left,,,,,,174.1125,174.919,left,1,0.7961,,0,3,3,3,1,kağıt,distractor,,,,,,,,,,
,,,,,366852,001,2026-05-10_01h04.00.082,false_memory_experiment,2026.1.3,MacIntel,123.4567901,,,,,,,,,,,,,3,,,TR,,,,,,,,,,,,,,right,,,,,,174.9197,175.6942,right,1,0.7685,,0,4,4,1,1,mont,old,,,,,,,,,,
,,,,,366852,001,2026-05-10_01h04.00.082,false_memory_experiment,2026.1.3,MacIntel,123.4567901,,,,,,,,,,,,,,,,,,,,,,,,,,,,,,,,,,,,,,,,,,,,,,,,,0,2,2,2,1,3,24:36,10:15,,
,,,,,366852,001,2026-05-10_01h04.00.082,false_memory_experiment,2026.1.3,MacIntel,123.4567901,175.6948,176.5522,space,0.8505,,176.5608,178.0525,0,0,0,0,1,1,uyku,yatak,TR,,,,,,,,,,,,,,,,,,,,,,,,,,,,,,,,,,,,,,,,,,
,,,,,366852,001,2026-05-10_01h04.00.082,false_memory_experiment,2026.1.3,MacIntel,123.4567901,,,,,,178.0535,179.5521,0,1,1,1,1,1,uyku,rüya,TR,,,,,,,,,,,,,,,,,,,,,,,,,,,,,,,,,,,,,,,,,,
,,,,,366852,001,2026-05-10_01h04.00.082,false_memory_experiment,2026.1.3,MacIntel,123.4567901,,,,,,179.553,181.0523,0,2,2,2,1,1,uyku,yastık,TR,,,,,,,,,,,,,,,,,,,,,,,,,,,,,,,,,,,,,,,,,,
,,,,,366852,001,2026-05-10_01h04.00.082,false_memory_experiment,2026.1.3,MacIntel,123.4567901,,,,,,181.053,182.5522,0,3,3,3,1,1,uyku,gece,TR,,,,,,,,,,,,,,,,,,,,,,,,,,,,,,,,,,,,,,,,,,
,,,,,366852,001,2026-05-10_01h04.00.082,false_memory_experiment,2026.1.3,MacIntel,123.4567901,,,,,,182.5526,184.052,0,4,4,4,1,1,uyku,yorgan,TR,,,,,,,,,,,,,,,,,,,,,,,,,,,,,,,,,,,,,,,,,,
,,,,,366852,001,2026-05-10_01h04.00.082,false_memory_experiment,2026.1.3,MacIntel,123.4567901,,,,,,184.0524,185.5524,0,5,5,5,1,1,uyku,battaniye,TR,,,,,,,,,,,,,,,,,,,,,,,,,,,,,,,,,,,,,,,,,,
,,,,,366852,001,2026-05-10_01h04.00.082,false_memory_experiment,2026.1.3,MacIntel,123.4567901,,,,,,185.5534,187.0525,0,6,6,6,1,1,uyku,dinlenmek,TR,,,,,,,,,,,,,,,,,,,,,,,,,,,,,,,,,,,,,,,,,,
,,,,,366852,001,2026-05-10_01h04.00.082,false_memory_experiment,2026.1.3,MacIntel,123.4567901,,,,,,187.0541,188.5524,0,7,7,7,1,1,uyku,horlamak,TR,,,,,,,,,,,,,,,,,,,,,,,,,,,,,,,,,,,,,,,,,,
,,,,,366852,001,2026-05-10_01h04.00.082,false_memory_experiment,2026.1.3,MacIntel,123.4567901,,,,,,188.5543,190.0524,0,8,8,8,1,1,uyku,pijama,TR,,,,,,,,,,,,,,,,,,,,,,,,,,,,,,,,,,,,,,,,,,
,,,,,366852,001,2026-05-10_01h04.00.082,false_memory_experiment,2026.1.3,MacIntel,123.4567901,,,,,,190.0534,191.5522,0,9,9,9,1,1,uyku,yorgun,TR,,,,,,,,,,,,,,,,,,,,,,,,,,,,,,,,,,,,,,,,,,
,,,,,366852,001,2026-05-10_01h04.00.082,false_memory_experiment,2026.1.3,MacIntel,123.4567901,,,,,,191.5536,193.0525,0,10,10,10,1,1,uyku,karanlık,TR,,,,,,,,,,,,,,,,,,,,,,,,,,,,,,,,,,,,,,,,,,
,,,,,366852,001,2026-05-10_01h04.00.082,false_memory_experiment,2026.1.3,MacIntel,123.4567901,,,,,,193.0544,194.5524,0,11,11,11,1,1,uyku,lamba,TR,,,,,,,,,,,,,,,,,,,,,,,,,,,,,,,,,,,,,,,,,,
,,,,,366852,001,2026-05-10_01h04.00.082,false_memory_experiment,2026.1.3,MacIntel,123.4567901,,,,,,,,,,,,,,,,,194.5527,194.5527,194.6084,196.6281,left,2.0138,,0,0,0,0,1,8 + 39 = 46,left,,,,,,,,,,,,,,,,,,,,,,,,,,,,
,,,,,366852,001,2026-05-10_01h04.00.082,false_memory_experiment,2026.1.3,MacIntel,123.4567901,,,,,,,,,,,,,,,,,,,196.6309,197.6613,right,1.0162,,0,1,1,39,1,20 + 20 = 40,right,,,,,,,,,,,,,,,,,,,,,,,,,,,,
,,,,,366852,001,2026-05-10_01h04.00.082,false_memory_experiment,2026.1.3,MacIntel,123.4567901,,,,,,,,,,,,,,,,,,,197.664,199.1697,left,1.4951,,0,2,2,26,1,38 - 18 = 19,left,,,,,,,,,,,,,,,,,,,,,,,,,,,,
,,,,,366852,001,2026-05-10_01h04.00.082,false_memory_experiment,2026.1.3,MacIntel,123.4567901,,,,,,,,,,,,,,,,,,,199.1729,200.4615,right,1.2781,,0,3,3,19,1,11 + 10 = 21,right,,,,,,,,,,,,,,,,,,,,,,,,,,,,
,,,,,366852,001,2026-05-10_01h04.00.082,false_memory_experiment,2026.1.3,MacIntel,123.4567901,,,,,,,,,,,,,,,,,,,200.4649,202.1532,right,1.6748,,0,4,4,30,1,11 + 17 = 28,right,,,,,,,,,,,,,,,,,,,,,,,,,,,,
,,,,,366852,001,2026-05-10_01h04.00.082,false_memory_experiment,2026.1.3,MacIntel,123.4567901,,,,,,,,,,,,,,,,,,,202.1562,203.7697,left,1.5995,,0,5,5,23,1,41 + 19 = 65,left,,,,,,,,,,,,,,,,,,,,,,,,,,,,
,,,,,366852,001,2026-05-10_01h04.00.082,false_memory_experiment,2026.1.3,MacIntel,123.4567901,,,,,,,,,,,,,,,,,,,203.773,206.3532,left,2.5709,,0,6,6,36,1,28 + 42 = 69,left,,,,,,,,,,,,,,,,,,,,,,,,,,,,
,,,,,366852,001,2026-05-10_01h04.00.082,false_memory_experiment,2026.1.3,MacIntel,123.4567901,,,,,,,,,,,,,,,,,,,206.3563,207.8123,left,1.4453,,0,7,7,4,1,19 + 33 = 53,left,,,,,,,,,,,,,,,,,,,,,,,,,,,,
,,,,,366852,001,2026-05-10_01h04.00.082,false_memory_experiment,2026.1.3,MacIntel,123.4567901,,,,,,,,,,,,,,,,,,,207.8153,208.9528,left,1.1248,,0,8,8,24,1,40 - 22 = 19,left,,,,,,,,,,,,,,,,,,,,,,,,,,,,
,,,,,366852,001,2026-05-10_01h04.00.082,false_memory_experiment,2026.1.3,MacIntel,123.4567901,,,,,,,,,,,,,,,,,,,208.9562,209.5629,,,,0,9,9,13,1,5 + 6 = 6,left,,,,,,,,,,,,,,,,,,,,,,,,,,,,
,,,,,366852,001,2026-05-10_01h04.00.082,false_memory_experiment,2026.1.3,MacIntel,123.4567901,,,,,,,,,,,,,1,,,TR,,,,,,,,,,,,,,left,209.5637,210.5774,space,1.0052,,210.584,212.2265,left,1,1.6318,,0,0,0,2,1,sandalye,distractor,,,,,,,,,,
,,,,,366852,001,2026-05-10_01h04.00.082,false_memory_experiment,2026.1.3,MacIntel,123.4567901,,,,,,,,,,,,,1,,,TR,,,,,,,,,,,,,,left,,,,,,212.2273,213.0107,right,0,0.7751,,0,1,1,4,1,uyku,critical_lure,,,,,,,,,,
,,,,,366852,001,2026-05-10_01h04.00.082,false_memory_experiment,2026.1.3,MacIntel,123.4567901,,,,,,,,,,,,,1,,,TR,,,,,,,,,,,,,,left,,,,,,213.0115,213.7277,left,1,0.7095,,0,2,2,3,1,araba,distractor,,,,,,,,,,
,,,,,366852,001,2026-05-10_01h04.00.082,false_memory_experiment,2026.1.3,MacIntel,123.4567901,,,,,,,,,,,,,1,,,TR,,,,,,,,,,,,,,right,,,,,,213.729,214.3596,right,1,0.6226,,0,3,3,0,1,yatak,old,,,,,,,,,,
,,,,,366852,001,2026-05-10_01h04.00.082,false_memory_experiment,2026.1.3,MacIntel,123.4567901,,,,,,,,,,,,,1,,,TR,,,,,,,,,,,,,,right,,,,,,214.3605,215.1022,left,0,0.7306,,0,4,4,1,1,lamba,old,,,,,,,,,,
,,,,,366852,001,2026-05-10_01h04.00.082,false_memory_experiment,2026.1.3,MacIntel,123.4567901,,,,,,,,,,,,,,,,,,,,,,,,,,,,,,,,,,,,,,,,,,,,,,,,,0,3,3,0,1,1,0:12,0:5,,
,,,,,366852,001,2026-05-10_01h04.00.082,false_memory_experiment,2026.1.3,MacIntel,123.4567901,215.1025,215.7856,space,0.6764,,215.7928,217.2856,0,0,0,0,1,4,sleep,bed,EN,,,,,,,,,,,,,,,,,,,,,,,,,,,,,,,,,,,,,,,,,,
,,,,,366852,001,2026-05-10_01h04.00.082,false_memory_experiment,2026.1.3,MacIntel,123.4567901,,,,,,217.2875,218.7857,0,1,1,1,1,4,sleep,dream,EN,,,,,,,,,,,,,,,,,,,,,,,,,,,,,,,,,,,,,,,,,,
,,,,,366852,001,2026-05-10_01h04.00.082,false_memory_experiment,2026.1.3,MacIntel,123.4567901,,,,,,218.7873,220.2858,0,2,2,2,1,4,sleep,pillow,EN,,,,,,,,,,,,,,,,,,,,,,,,,,,,,,,,,,,,,,,,,,
,,,,,366852,001,2026-05-10_01h04.00.082,false_memory_experiment,2026.1.3,MacIntel,123.4567901,,,,,,220.2874,221.785,0,3,3,3,1,4,sleep,night,EN,,,,,,,,,,,,,,,,,,,,,,,,,,,,,,,,,,,,,,,,,,
,,,,,366852,001,2026-05-10_01h04.00.082,false_memory_experiment,2026.1.3,MacIntel,123.4567901,,,,,,221.7867,223.2856,0,4,4,4,1,4,sleep,blanket,EN,,,,,,,,,,,,,,,,,,,,,,,,,,,,,,,,,,,,,,,,,,
,,,,,366852,001,2026-05-10_01h04.00.082,false_memory_experiment,2026.1.3,MacIntel,123.4567901,,,,,,223.2875,224.7854,0,5,5,5,1,4,sleep,rest,EN,,,,,,,,,,,,,,,,,,,,,,,,,,,,,,,,,,,,,,,,,,
,,,,,366852,001,2026-05-10_01h04.00.082,false_memory_experiment,2026.1.3,MacIntel,123.4567901,,,,,,224.7864,226.2856,0,6,6,6,1,4,sleep,snore,EN,,,,,,,,,,,,,,,,,,,,,,,,,,,,,,,,,,,,,,,,,,
,,,,,366852,001,2026-05-10_01h04.00.082,false_memory_experiment,2026.1.3,MacIntel,123.4567901,,,,,,226.2872,227.7856,0,7,7,7,1,4,sleep,tired,EN,,,,,,,,,,,,,,,,,,,,,,,,,,,,,,,,,,,,,,,,,,
,,,,,366852,001,2026-05-10_01h04.00.082,false_memory_experiment,2026.1.3,MacIntel,123.4567901,,,,,,227.7875,229.2856,0,8,8,8,1,4,sleep,nap,EN,,,,,,,,,,,,,,,,,,,,,,,,,,,,,,,,,,,,,,,,,,
,,,,,366852,001,2026-05-10_01h04.00.082,false_memory_experiment,2026.1.3,MacIntel,123.4567901,,,,,,229.2874,230.7855,0,9,9,9,1,4,sleep,dark,EN,,,,,,,,,,,,,,,,,,,,,,,,,,,,,,,,,,,,,,,,,,
,,,,,366852,001,2026-05-10_01h04.00.082,false_memory_experiment,2026.1.3,MacIntel,123.4567901,,,,,,230.7862,232.2856,0,10,10,10,1,4,sleep,pajamas,EN,,,,,,,,,,,,,,,,,,,,,,,,,,,,,,,,,,,,,,,,,,
,,,,,366852,001,2026-05-10_01h04.00.082,false_memory_experiment,2026.1.3,MacIntel,123.4567901,,,,,,232.2869,233.7857,0,11,11,11,1,4,sleep,yawn,EN,,,,,,,,,,,,,,,,,,,,,,,,,,,,,,,,,,,,,,,,,,
,,,,,366852,001,2026-05-10_01h04.00.082,false_memory_experiment,2026.1.3,MacIntel,123.4567901,,,,,,,,,,,,,,,,,233.7859,233.786,233.8479,235.0362,right,1.179,,0,0,0,19,1,11 + 10 = 21,right,,,,,,,,,,,,,,,,,,,,,,,,,,,,
,,,,,366852,001,2026-05-10_01h04.00.082,false_memory_experiment,2026.1.3,MacIntel,123.4567901,,,,,,,,,,,,,,,,,,,235.0388,236.9279,left,1.8801,,0,1,1,12,1,25 + 26 = 46,left,,,,,,,,,,,,,,,,,,,,,,,,,,,,
,,,,,366852,001,2026-05-10_01h04.00.082,false_memory_experiment,2026.1.3,MacIntel,123.4567901,,,,,,,,,,,,,,,,,,,236.9311,237.8364,right,0.8953,,0,2,2,33,1,19 + 11 = 30,right,,,,,,,,,,,,,,,,,,,,,,,,,,,,
,,,,,366852,001,2026-05-10_01h04.00.082,false_memory_experiment,2026.1.3,MacIntel,123.4567901,,,,,,,,,,,,,,,,,,,237.8397,238.9024,left,1.0517,,0,3,3,28,1,17 - 13 = -1,left,,,,,,,,,,,,,,,,,,,,,,,,,,,,
,,,,,366852,001,2026-05-10_01h04.00.082,false_memory_experiment,2026.1.3,MacIntel,123.4567901,,,,,,,,,,,,,,,,,,,238.9044,240.3614,left,1.4477,,0,4,4,10,1,24 + 33 = 60,left,,,,,,,,,,,,,,,,,,,,,,,,,,,,
,,,,,366852,001,2026-05-10_01h04.00.082,false_memory_experiment,2026.1.3,MacIntel,123.4567901,,,,,,,,,,,,,,,,,,,240.3645,241.7616,right,1.3867,,0,5,5,32,1,38 - 28 = 10,right,,,,,,,,,,,,,,,,,,,,,,,,,,,,
,,,,,366852,001,2026-05-10_01h04.00.082,false_memory_experiment,2026.1.3,MacIntel,123.4567901,,,,,,,,,,,,,,,,,,,241.7647,243.1115,left,1.3356,,0,6,6,4,1,19 + 33 = 53,left,,,,,,,,,,,,,,,,,,,,,,,,,,,,
,,,,,366852,001,2026-05-10_01h04.00.082,false_memory_experiment,2026.1.3,MacIntel,123.4567901,,,,,,,,,,,,,,,,,,,243.1146,244.4284,right,1.3027,,0,7,7,38,1,12 - 11 = 1,right,,,,,,,,,,,,,,,,,,,,,,,,,,,,
,,,,,366852,001,2026-05-10_01h04.00.082,false_memory_experiment,2026.1.3,MacIntel,123.4567901,,,,,,,,,,,,,,,,,,,244.4317,246.928,left,2.485,,0,8,8,5,1,17 + 48 = 65,right,,,,,,,,,,,,,,,,,,,,,,,,,,,,
,,,,,366852,001,2026-05-10_01h04.00.082,false_memory_experiment,2026.1.3,MacIntel,123.4567901,,,,,,,,,,,,,,,,,,,246.931,248.0192,left,1.0765,,0,9,9,13,1,5 + 6 = 6,left,,,,,,,,,,,,,,,,,,,,,,,,,,,,
,,,,,366852,001,2026-05-10_01h04.00.082,false_memory_experiment,2026.1.3,MacIntel,123.4567901,,,,,,,,,,,,,,,,,,,248.0215,248.7951,,,,0,10,10,3,1,25 + 28 = 50,left,,,,,,,,,,,,,,,,,,,,,,,,,,,,
,,,,,366852,001,2026-05-10_01h04.00.082,false_memory_experiment,2026.1.3,MacIntel,123.4567901,,,,,,,,,,,,,4,,,EN,,,,,,,,,,,,,,left,248.796,249.893,space,1.0906,,249.9002,251.2606,left,1,1.3502,,0,0,0,3,1,car,distractor,,,,,,,,,,
,,,,,366852,001,2026-05-10_01h04.00.082,false_memory_experiment,2026.1.3,MacIntel,123.4567901,,,,,,,,,,,,,4,,,EN,,,,,,,,,,,,,,right,,,,,,251.262,251.9016,right,1,0.6278,,0,1,1,1,1,yawn,old,,,,,,,,,,
,,,,,366852,001,2026-05-10_01h04.00.082,false_memory_experiment,2026.1.3,MacIntel,123.4567901,,,,,,,,,,,,,4,,,EN,,,,,,,,,,,,,,left,,,,,,251.9023,252.6022,left,1,0.6911,,0,2,2,2,1,chair,distractor,,,,,,,,,,
,,,,,366852,001,2026-05-10_01h04.00.082,false_memory_experiment,2026.1.3,MacIntel,123.4567901,,,,,,,,,,,,,4,,,EN,,,,,,,,,,,,,,right,,,,,,252.6031,253.5856,right,1,0.9765,,0,3,3,0,1,bed,old,,,,,,,,,,
,,,,,366852,001,2026-05-10_01h04.00.082,false_memory_experiment,2026.1.3,MacIntel,123.4567901,,,,,,,,,,,,,4,,,EN,,,,,,,,,,,,,,left,,,,,,253.5866,254.2597,right,0,0.6648,,0,4,4,4,1,sleep,critical_lure,,,,,,,,,,
,,,,,366852,001,2026-05-10_01h04.00.082,false_memory_experiment,2026.1.3,MacIntel,123.4567901,,,,,,,,,,,,,,,,,,,,,,,,,,,,,,,,,,,,,,,,,,,,,,,,,0,4,4,3,1,4,36:48,15:20,,
,,,,,366852,001,2026-05-10_01h04.00.082,false_memory_experiment,2026.1.3,MacIntel,123.4567901,254.2602,254.8772,space,0.6098,,254.8855,256.3772,0,0,0,0,1,2,tatlı,şeker,TR,,,,,,,,,,,,,,,,,,,,,,,,,,,,,,,,,,,,,,,,,,
,,,,,366852,001,2026-05-10_01h04.00.082,false_memory_experiment,2026.1.3,MacIntel,123.4567901,,,,,,256.3796,257.877,0,1,1,1,1,2,tatlı,çikolata,TR,,,,,,,,,,,,,,,,,,,,,,,,,,,,,,,,,,,,,,,,,,
,,,,,366852,001,2026-05-10_01h04.00.082,false_memory_experiment,2026.1.3,MacIntel,123.4567901,,,,,,257.8782,259.3771,0,2,2,2,1,2,tatlı,pasta,TR,,,,,,,,,,,,,,,,,,,,,,,,,,,,,,,,,,,,,,,,,,
,,,,,366852,001,2026-05-10_01h04.00.082,false_memory_experiment,2026.1.3,MacIntel,123.4567901,,,,,,259.3784,260.8769,0,3,3,3,1,2,tatlı,bal,TR,,,,,,,,,,,,,,,,,,,,,,,,,,,,,,,,,,,,,,,,,,
,,,,,366852,001,2026-05-10_01h04.00.082,false_memory_experiment,2026.1.3,MacIntel,123.4567901,,,,,,260.8785,262.3773,0,4,4,4,1,2,tatlı,reçel,TR,,,,,,,,,,,,,,,,,,,,,,,,,,,,,,,,,,,,,,,,,,
,,,,,366852,001,2026-05-10_01h04.00.082,false_memory_experiment,2026.1.3,MacIntel,123.4567901,,,,,,262.379,263.8763,0,5,5,5,1,2,tatlı,kek,TR,,,,,,,,,,,,,,,,,,,,,,,,,,,,,,,,,,,,,,,,,,
,,,,,366852,001,2026-05-10_01h04.00.082,false_memory_experiment,2026.1.3,MacIntel,123.4567901,,,,,,263.878,265.3772,0,6,6,6,1,2,tatlı,kurabiye,TR,,,,,,,,,,,,,,,,,,,,,,,,,,,,,,,,,,,,,,,,,,
,,,,,366852,001,2026-05-10_01h04.00.082,false_memory_experiment,2026.1.3,MacIntel,123.4567901,,,,,,265.379,266.8769,0,7,7,7,1,2,tatlı,dondurma,TR,,,,,,,,,,,,,,,,,,,,,,,,,,,,,,,,,,,,,,,,,,
,,,,,366852,001,2026-05-10_01h04.00.082,false_memory_experiment,2026.1.3,MacIntel,123.4567901,,,,,,266.8782,268.3767,0,8,8,8,1,2,tatlı,gofret,TR,,,,,,,,,,,,,,,,,,,,,,,,,,,,,,,,,,,,,,,,,,
,,,,,366852,001,2026-05-10_01h04.00.082,false_memory_experiment,2026.1.3,MacIntel,123.4567901,,,,,,268.3782,269.8772,0,9,9,9,1,2,tatlı,lokum,TR,,,,,,,,,,,,,,,,,,,,,,,,,,,,,,,,,,,,,,,,,,
,,,,,366852,001,2026-05-10_01h04.00.082,false_memory_experiment,2026.1.3,MacIntel,123.4567901,,,,,,269.8789,271.3768,0,10,10,10,1,2,tatlı,şerbet,TR,,,,,,,,,,,,,,,,,,,,,,,,,,,,,,,,,,,,,,,,,,
,,,,,366852,001,2026-05-10_01h04.00.082,false_memory_experiment,2026.1.3,MacIntel,123.4567901,,,,,,271.3783,272.8771,0,11,11,11,1,2,tatlı,meyve,TR,,,,,,,,,,,,,,,,,,,,,,,,,,,,,,,,,,,,,,,,,,
,,,,,366852,001,2026-05-10_01h04.00.082,false_memory_experiment,2026.1.3,MacIntel,123.4567901,,,,,,,,,,,,,,,,,272.8773,272.8775,272.9388,274.5949,left,1.6485,,0,0,0,7,1,19 - 15 = 3,left,,,,,,,,,,,,,,,,,,,,,,,,,,,,
,,,,,366852,001,2026-05-10_01h04.00.082,false_memory_experiment,2026.1.3,MacIntel,123.4567901,,,,,,,,,,,,,,,,,,,274.5981,275.7696,left,1.1591,,0,1,1,22,1,17 - 7 = 11,left,,,,,,,,,,,,,,,,,,,,,,,,,,,,
,,,,,366852,001,2026-05-10_01h04.00.082,false_memory_experiment,2026.1.3,MacIntel,123.4567901,,,,,,,,,,,,,,,,,,,275.7727,277.1535,left,1.3717,,0,2,2,23,1,41 + 19 = 65,left,,,,,,,,,,,,,,,,,,,,,,,,,,,,
,,,,,366852,001,2026-05-10_01h04.00.082,false_memory_experiment,2026.1.3,MacIntel,123.4567901,,,,,,,,,,,,,,,,,,,277.157,278.6187,left,1.4497,,0,3,3,17,1,35 - 26 = 7,left,,,,,,,,,,,,,,,,,,,,,,,,,,,,
,,,,,366852,001,2026-05-10_01h04.00.082,false_memory_experiment,2026.1.3,MacIntel,123.4567901,,,,,,,,,,,,,,,,,,,278.621,279.7779,right,1.1457,,0,4,4,32,1,38 - 28 = 10,right,,,,,,,,,,,,,,,,,,,,,,,,,,,,
,,,,,366852,001,2026-05-10_01h04.00.082,false_memory_experiment,2026.1.3,MacIntel,123.4567901,,,,,,,,,,,,,,,,,,,279.7808,281.2362,left,1.443,,0,5,5,29,1,13 + 14 = 26,left,,,,,,,,,,,,,,,,,,,,,,,,,,,,
,,,,,366852,001,2026-05-10_01h04.00.082,false_memory_experiment,2026.1.3,MacIntel,123.4567901,,,,,,,,,,,,,,,,,,,281.2396,282.9947,left,1.7422,,0,6,6,25,1,30 + 44 = 73,left,,,,,,,,,,,,,,,,,,,,,,,,,,,,
,,,,,366852,001,2026-05-10_01h04.00.082,false_memory_experiment,2026.1.3,MacIntel,123.4567901,,,,,,,,,,,,,,,,,,,282.9978,284.1946,left,1.1857,,0,7,7,28,1,17 - 13 = -1,left,,,,,,,,,,,,,,,,,,,,,,,,,,,,
,,,,,366852,001,2026-05-10_01h04.00.082,false_memory_experiment,2026.1.3,MacIntel,123.4567901,,,,,,,,,,,,,,,,,,,284.1976,285.8782,left,1.6723,,0,8,8,11,1,39 - 15 = 26,left,,,,,,,,,,,,,,,,,,,,,,,,,,,,
,,,,,366852,001,2026-05-10_01h04.00.082,false_memory_experiment,2026.1.3,MacIntel,123.4567901,,,,,,,,,,,,,,,,,,,285.8809,287.3448,left,1.4526,,0,9,9,26,1,38 - 18 = 19,left,,,,,,,,,,,,,,,,,,,,,,,,,,,,
,,,,,366852,001,2026-05-10_01h04.00.082,false_memory_experiment,2026.1.3,MacIntel,123.4567901,,,,,,,,,,,,,,,,,,,287.3478,287.8883,,,,0,10,10,33,1,19 + 11 = 30,right,,,,,,,,,,,,,,,,,,,,,,,,,,,,
,,,,,366852,001,2026-05-10_01h04.00.082,false_memory_experiment,2026.1.3,MacIntel,123.4567901,,,,,,,,,,,,,2,,,TR,,,,,,,,,,,,,,right,287.8893,288.9769,space,1.0784,,288.9824,289.9606,right,1,0.968,,0,0,0,1,1,bal,old,,,,,,,,,,
,,,,,366852,001,2026-05-10_01h04.00.082,false_memory_experiment,2026.1.3,MacIntel,123.4567901,,,,,,,,,,,,,2,,,TR,,,,,,,,,,,,,,left,,,,,,289.9619,290.752,left,1,0.7788,,0,1,1,3,1,saat,distractor,,,,,,,,,,
,,,,,366852,001,2026-05-10_01h04.00.082,false_memory_experiment,2026.1.3,MacIntel,123.4567901,,,,,,,,,,,,,2,,,TR,,,,,,,,,,,,,,left,,,,,,290.753,291.836,left,1,1.0754,,0,2,2,4,1,tatlı,critical_lure,,,,,,,,,,
,,,,,366852,001,2026-05-10_01h04.00.082,false_memory_experiment,2026.1.3,MacIntel,123.4567901,,,,,,,,,,,,,2,,,TR,,,,,,,,,,,,,,left,,,,,,291.8366,292.5272,left,1,0.6817,,0,3,3,2,1,kalem,distractor,,,,,,,,,,
,,,,,366852,001,2026-05-10_01h04.00.082,false_memory_experiment,2026.1.3,MacIntel,123.4567901,,,,,,,,,,,,,2,,,TR,,,,,,,,,,,,,,right,,,,,,292.5285,293.1259,right,1,0.5899,,0,4,4,0,1,şeker,old,,,,,,,,,,
,,,,,366852,001,2026-05-10_01h04.00.082,false_memory_experiment,2026.1.3,MacIntel,123.4567901,,,,,,,,,,,,,,,,,,,,,,,,,,,,,,,,,,,,,,,,,,,,,,,,,0,5,5,1,1,2,12:24,5:10,,
,,,,,366852,001,2026-05-10_01h04.00.082,false_memory_experiment,2026.1.3,MacIntel,123.4567901,,,,,,,,,,,,,,,,,,,,,,,,,,,,,,,,,,,,,,,,,,,,,,,,,,,,,,,,,293.1262,296.127
