instructions.started,instructions.stopped,key_resp_instr.keys,key_resp_instr.rt,key_resp_instr.duration,participant,session,date,expName,psychopyVersion,OS,frameRate,start_set.started,start_set.stopped,key_resp_start_set.keys,key_resp_start_set.rt,key_resp_start_set.duration,study.started,study.stopped,study_loop.thisRepN,study_loop.thisTrialN,study_loop.thisN,study_loop.thisIndex,study_loop.ran,list_id,theme,study_word,language,timer.started,timer.stopped,distractor.started,distractor.stopped,key_resp.keys,key_resp.rt,key_resp.duration,distractor_loop.thisRepN,distractor_loop.thisTrialN,distractor_loop.thisN,distractor_loop.thisIndex,distractor_loop.ran,problem,correct_resp,start_test.started,start_test.stopped,key_resp_start_test.keys,key_resp_start_test.rt,key_resp_start_test.duration,test.started,test.stopped,key_resp_test.keys,key_resp_test.corr,key_resp_test.rt,key_resp_test.duration,test_loop.thisRepN,test_loop.thisTrialN,test_loop.thisN,test_loop.thisIndex,test_loop.ran,test_word,word_type,blocks_loop.thisRepN,blocks_loop.thisTrialN,blocks_loop.thisN,blocks_loop.thisIndex,blocks_loop.ran,block_id,study_rows,test_rows,end.started,end.stopped
0,58.788,space,58.759,,2380228,001,2026-05-10_15h09.42.511,false_memory_experiment,2026.1.3,MacIntel,119.9040767,,,,,,,,,,,,,,,,,,,,,,,,,,,,,,,,,,,,,,,,,,,,,,,,,,,,,,,,,,
,,,,,2380228,001,2026-05-10_15h09.42.511,false_memory_experiment,2026.1.3,MacIntel,119.9040767,58.799,61.096,space,2.281,,61.108,62.595,0,0,0,0,1,1,uyku,yatak,TR,,,,,,,,,,,,,,,,,,,,,,,,,,,,,,,,,,,,,,,,,,
,,,,,2380228,001,2026-05-10_15h09.42.511,false_memory_experiment,2026.1.3,MacIntel,119.9040767,,,,,,62.597,64.094,0,1,1,1,1,1,uyku,rüya,TR,,,,,,,,,,,,,,,,,,,,,,,,,,,,,,,,,,,,,,,,,,
,,,,,2380228,001,2026-05-10_15h09.42.511,false_memory_experiment,2026.1.3,MacIntel,119.9040767,,,,,,64.097,65.595,0,2,2,2,1,1,uyku,yastık,TR,,,,,,,,,,,,,,,,,,,,,,,,,,,,,,,,,,,,,,,,,,
,,,,,2380228,001,2026-05-10_15h09.42.511,false_memory_experiment,2026.1.3,MacIntel,119.9040767,,,,,,65.597,67.095,0,3,3,3,1,1,uyku,gece,TR,,,,,,,,,,,,,,,,,,,,,,,,,,,,,,,,,,,,,,,,,,
,,,,,2380228,001,2026-05-10_15h09.42.511,false_memory_experiment,2026.1.3,MacIntel,119.9040767,,,,,,67.097,68.594,0,4,4,4,1,1,uyku,yorgan,TR,,,,,,,,,,,,,,,,,,,,,,,,,,,,,,,,,,,,,,,,,,
,,,,,2380228,001,2026-05-10_15h09.42.511,false_memory_experiment,2026.1.3,MacIntel,119.9040767,,,,,,68.597,70.094,0,5,5,5,1,1,uyku,battaniye,TR,,,,,,,,,,,,,,,,,,,,,,,,,,,,,,,,,,,,,,,,,,
,,,,,2380228,001,2026-05-10_15h09.42.511,false_memory_experiment,2026.1.3,MacIntel,119.9040767,,,,,,70.096,71.595,0,6,6,6,1,1,uyku,dinlenmek,TR,,,,,,,,,,,,,,,,,,,,,,,,,,,,,,,,,,,,,,,,,,
,,,,,2380228,001,2026-05-10_15h09.42.511,false_memory_experiment,2026.1.3,MacIntel,119.9040767,,,,,,71.596,73.094,0,7,7,7,1,1,uyku,horlamak,TR,,,,,,,,,,,,,,,,,,,,,,,,,,,,,,,,,,,,,,,,,,
,,,,,2380228,001,2026-05-10_15h09.42.511,false_memory_experiment,2026.1.3,MacIntel,119.9040767,,,,,,73.097,74.594,0,8,8,8,1,1,uyku,pijama,TR,,,,,,,,,,,,,,,,,,,,,,,,,,,,,,,,,,,,,,,,,,
,,,,,2380228,001,2026-05-10_15h09.42.511,false_memory_experiment,2026.1.3,MacIntel,119.9040767,,,,,,74.596,76.094,0,9,9,9,1,1,uyku,yorgun,TR,,,,,,,,,,,,,,,,,,,,,,,,,,,,,,,,,,,,,,,,,,
,,,,,2380228,001,2026-05-10_15h09.42.511,false_memory_experiment,2026.1.3,MacIntel,119.9040767,,,,,,76.097,77.595,0,10,10,10,1,1,uyku,karanlık,TR,,,,,,,,,,,,,,,,,,,,,,,,,,,,,,,,,,,,,,,,,,
,,,,,2380228,001,2026-05-10_15h09.42.511,false_memory_experiment,2026.1.3,MacIntel,119.9040767,,,,,,77.597,79.094,0,11,11,11,1,1,uyku,lamba,TR,,,,,,,,,,,,,,,,,,,,,,,,,,,,,,,,,,,,,,,,,,
,,,,,2380228,001,2026-05-10_15h09.42.511,false_memory_experiment,2026.1.3,MacIntel,119.9040767,,,,,,,,,,,,,,,,,79.095,79.095,79.18,82.802,left,3.608,,0,0,0,15,1,5 + 32 = 42,left,,,,,,,,,,,,,,,,,,,,,,,,,,,,
,,,,,2380228,001,2026-05-10_15h09.42.511,false_memory_experiment,2026.1.3,MacIntel,119.9040767,,,,,,,,,,,,,,,,,,,82.804,85.011,left,2.196,,0,1,1,23,1,41 + 19 = 65,left,,,,,,,,,,,,,,,,,,,,,,,,,,,,
,,,,,2380228,001,2026-05-10_15h09.42.511,false_memory_experiment,2026.1.3,MacIntel,119.9040767,,,,,,,,,,,,,,,,,,,85.013,87.811,left,2.783,,0,2,2,0,1,8 + 39 = 46,left,,,,,,,,,,,,,,,,,,,,,,,,,,,,
,,,,,2380228,001,2026-05-10_15h09.42.511,false_memory_experiment,2026.1.3,MacIntel,119.9040767,,,,,,,,,,,,,,,,,,,87.812,92.414,right,4.591,,0,3,3,8,1,50 - 18 = 32,right,,,,,,,,,,,,,,,,,,,,,,,,,,,,
,,,,,2380228,001,2026-05-10_15h09.42.511,false_memory_experiment,2026.1.3,MacIntel,119.9040767,,,,,,,,,,,,,,,,,,,92.418,94.098,,,,0,4,4,20,1,37 + 41 = 78,right,,,,,,,,,,,,,,,,,,,,,,,,,,,,
,,,,,2380228,001,2026-05-10_15h09.42.511,false_memory_experiment,2026.1.3,MacIntel,119.9040767,,,,,,,,,,,,,1,,,TR,,,,,,,,,,,,,,left,94.098,98.257,space,4.144,,98.269,101.557,left,1,3.274,,0,0,0,2,1,sandalye,distractor,,,,,,,,,,
,,,,,2380228,001,2026-05-10_15h09.42.511,false_memory_experiment,2026.1.3,MacIntel,119.9040767,,,,,,,,,,,,,1,,,TR,,,,,,,,,,,,,,left,,,,,,101.559,102.432,left,1,0.859,,0,1,1,3,1,araba,distractor,,,,,,,,,,
,,,,,2380228,001,2026-05-10_15h09.42.511,false_memory_experiment,2026.1.3,MacIntel,119.9040767,,,,,,,,,,,,,1,,,TR,,,,,,,,,,,,,,left,,,,,,102.434,103.549,right,0,1.102,,0,2,2,4,1,uyku,critical_lure,,,,,,,,,,
,,,,,2380228,001,2026-05-10_15h09.42.511,false_memory_experiment,2026.1.3,MacIntel,119.9040767,,,,,,,,,,,,,1,,,TR,,,,,,,,,,,,,,right,,,,,,103.55,104.465,right,1,0.905,,0,3,3,1,1,lamba,old,,,,,,,,,,
,,,,,2380228,001,2026-05-10_15h09.42.511,false_memory_experiment,2026.1.3,MacIntel,119.9040767,,,,,,,,,,,,,1,,,TR,,,,,,,,,,,,,,right,,,,,,104.466,105.248,right,1,0.77,,0,4,4,0,1,yatak,old,,,,,,,,,,
,,,,,2380228,001,2026-05-10_15h09.42.511,false_memory_experiment,2026.1.3,MacIntel,119.9040767,,,,,,,,,,,,,,,,,,,,,,,,,,,,,,,,,,,,,,,,,,,,,,,,,0,0,0,0,1,1,0:12,0:5,,
,,,,,2380228,001,2026-05-10_15h09.42.511,false_memory_experiment,2026.1.3,MacIntel,119.9040767,105.25,107.548,space,2.287,,107.558,109.049,0,0,0,0,1,3,soğuk,kış,TR,,,,,,,,,,,,,,,,,,,,,,,,,,,,,,,,,,,,,,,,,,
,,,,,2380228,001,2026-05-10_15h09.42.511,false_memory_experiment,2026.1.3,MacIntel,119.9040767,,,,,,109.051,110.549,0,1,1,1,1,3,soğuk,buz,TR,,,,,,,,,,,,,,,,,,,,,,,,,,,,,,,,,,,,,,,,,,
,,,,,2380228,001,2026-05-10_15h09.42.511,false_memory_experiment,2026.1.3,MacIntel,119.9040767,,,,,,110.55,112.048,0,2,2,2,1,3,soğuk,kar,TR,,,,,,,,,,,,,,,,,,,,,,,,,,,,,,,,,,,,,,,,,,
,,,,,2380228,001,2026-05-10_15h09.42.511,false_memory_experiment,2026.1.3,MacIntel,119.9040767,,,,,,112.051,113.549,0,3,3,3,1,3,soğuk,üşümek,TR,,,,,,,,,,,,,,,,,,,,,,,,,,,,,,,,,,,,,,,,,,
,,,,,2380228,001,2026-05-10_15h09.42.511,false_memory_experiment,2026.1.3,MacIntel,119.9040767,,,,,,113.552,115.049,0,4,4,4,1,3,soğuk,dondurucu,TR,,,,,,,,,,,,,,,,,,,,,,,,,,,,,,,,,,,,,,,,,,
,,,,,2380228,001,2026-05-10_15h09.42.511,false_memory_experiment,2026.1.3,MacIntel,119.9040767,,,,,,115.05,116.549,0,5,5,5,1,3,soğuk,ayaz,TR,,,,,,,,,,,,,,,,,,,,,,,,,,,,,,,,,,,,,,,,,,
,,,,,2380228,001,2026-05-10_15h09.42.511,false_memory_experiment,2026.1.3,MacIntel,119.9040767,,,,,,116.55,118.048,0,6,6,6,1,3,soğuk,titremek,TR,,,,,,,,,,,,,,,,,,,,,,,,,,,,,,,,,,,,,,,,,,
,,,,,2380228,001,2026-05-10_15h09.42.511,false_memory_experiment,2026.1.3,MacIntel,119.9040767,,,,,,118.051,119.548,0,7,7,7,1,3,soğuk,derece,TR,,,,,,,,,,,,,,,,,,,,,,,,,,,,,,,,,,,,,,,,,,
,,,,,2380228,001,2026-05-10_15h09.42.511,false_memory_experiment,2026.1.3,MacIntel,119.9040767,,,,,,119.55,121.048,0,8,8,8,1,3,soğuk,hava,TR,,,,,,,,,,,,,,,,,,,,,,,,,,,,,,,,,,,,,,,,,,
,,,,,2380228,001,2026-05-10_15h09.42.511,false_memory_experiment,2026.1.3,MacIntel,119.9040767,,,,,,121.05,122.549,0,9,9,9,1,3,soğuk,rüzgar,TR,,,,,,,,,,,,,,,,,,,,,,,,,,,,,,,,,,,,,,,,,,
,,,,,2380228,001,2026-05-10_15h09.42.511,false_memory_experiment,2026.1.3,MacIntel,119.9040767,,,,,,122.552,124.049,0,10,10,10,1,3,soğuk,mont,TR,,,,,,,,,,,,,,,,,,,,,,,,,,,,,,,,,,,,,,,,,,
,,,,,2380228,001,2026-05-10_15h09.42.511,false_memory_experiment,2026.1.3,MacIntel,119.9040767,,,,,,124.05,125.549,0,11,11,11,1,3,soğuk,eldiven,TR,,,,,,,,,,,,,,,,,,,,,,,,,,,,,,,,,,,,,,,,,,
,,,,,2380228,001,2026-05-10_15h09.42.511,false_memory_experiment,2026.1.3,MacIntel,119.9040767,,,,,,,,,,,,,,,,,125.549,125.549,125.613,128.507,left,2.883,,0,0,0,17,1,35 - 26 = 7,left,,,,,,,,,,,,,,,,,,,,,,,,,,,,
,,,,,2380228,001,2026-05-10_15h09.42.511,false_memory_experiment,2026.1.3,MacIntel,119.9040767,,,,,,,,,,,,,,,,,,,128.509,130.982,right,2.462,,0,1,1,20,1,37 + 41 = 78,right,,,,,,,,,,,,,,,,,,,,,,,,,,,,
,,,,,2380228,001,2026-05-10_15h09.42.511,false_memory_experiment,2026.1.3,MacIntel,119.9040767,,,,,,,,,,,,,,,,,,,130.984,134.357,right,3.361,,0,2,2,35,1,44 - 7 = 37,right,,,,,,,,,,,,,,,,,,,,,,,,,,,,
,,,,,2380228,001,2026-05-10_15h09.42.511,false_memory_experiment,2026.1.3,MacIntel,119.9040767,,,,,,,,,,,,,,,,,,,134.359,135.924,left,1.551,,0,3,3,13,1,5 + 6 = 6,left,,,,,,,,,,,,,,,,,,,,,,,,,,,,
,,,,,2380228,001,2026-05-10_15h09.42.511,false_memory_experiment,2026.1.3,MacIntel,119.9040767,,,,,,,,,,,,,,,,,,,135.926,138.782,left,2.842,,0,4,4,28,1,17 - 13 = -1,left,,,,,,,,,,,,,,,,,,,,,,,,,,,,
,,,,,2380228,001,2026-05-10_15h09.42.511,false_memory_experiment,2026.1.3,MacIntel,119.9040767,,,,,,,,,,,,,,,,,,,138.784,140.559,,,,0,5,5,4,1,19 + 33 = 53,left,,,,,,,,,,,,,,,,,,,,,,,,,,,,
,,,,,2380228,001,2026-05-10_15h09.42.511,false_memory_experiment,2026.1.3,MacIntel,119.9040767,,,,,,,,,,,,,3,,,TR,,,,,,,,,,,,,,left,140.56,143.657,space,3.084,,143.666,145.757,right,0,2.078,,0,0,0,4,1,soğuk,critical_lure,,,,,,,,,,
,,,,,2380228,001,2026-05-10_15h09.42.511,false_memory_experiment,2026.1.3,MacIntel,119.9040767,,,,,,,,,,,,,3,,,TR,,,,,,,,,,,,,,left,,,,,,145.758,146.565,left,1,0.794,,0,1,1,3,1,kağıt,distractor,,,,,,,,,,
,,,,,2380228,001,2026-05-10_15h09.42.511,false_memory_experiment,2026.1.3,MacIntel,119.9040767,,,,,,,,,,,,,3,,,TR,,,,,,,,,,,,,,right,,,,,,146.567,147.474,right,1,0.897,,0,2,2,0,1,kış,old,,,,,,,,,,
,,,,,2380228,001,2026-05-10_15h09.42.511,false_memory_experiment,2026.1.3,MacIntel,119.9040767,,,,,,,,,,,,,3,,,TR,,,,,,,,,,,,,,right,,,,,,147.475,148.232,right,1,0.747,,0,3,3,1,1,mont,old,,,,,,,,,,
,,,,,2380228,001,2026-05-10_15h09.42.511,false_memory_experiment,2026.1.3,MacIntel,119.9040767,,,,,,,,,,,,,3,,,TR,,,,,,,,,,,,,,left,,,,,,148.234,149.373,left,1,1.125,,0,4,4,2,1,bardak,distractor,,,,,,,,,,
,,,,,2380228,001,2026-05-10_15h09.42.511,false_memory_experiment,2026.1.3,MacIntel,119.9040767,,,,,,,,,,,,,,,,,,,,,,,,,,,,,,,,,,,,,,,,,,,,,,,,,0,1,1,2,1,3,24:36,10:15,,
,,,,,2380228,001,2026-05-10_15h09.42.511,false_memory_experiment,2026.1.3,MacIntel,119.9040767,149.374,150.782,space,1.396,,150.789,152.282,0,0,0,0,1,5,sweet,sugar,EN,,,,,,,,,,,,,,,,,,,,,,,,,,,,,,,,,,,,,,,,,,
,,,,,2380228,001,2026-05-10_15h09.42.511,false_memory_experiment,2026.1.3,MacIntel,119.9040767,,,,,,152.284,153.782,0,1,1,1,1,5,sweet,candy,EN,,,,,,,,,,,,,,,,,,,,,,,,,,,,,,,,,,,,,,,,,,
,,,,,2380228,001,2026-05-10_15h09.42.511,false_memory_experiment,2026.1.3,MacIntel,119.9040767,,,,,,153.784,155.282,0,2,2,2,1,5,sweet,sour,EN,,,,,,,,,,,,,,,,,,,,,,,,,,,,,,,,,,,,,,,,,,
,,,,,2380228,001,2026-05-10_15h09.42.511,false_memory_experiment,2026.1.3,MacIntel,119.9040767,,,,,,155.282,156.782,0,3,3,3,1,5,sweet,bitter,EN,,,,,,,,,,,,,,,,,,,,,,,,,,,,,,,,,,,,,,,,,,
,,,,,2380228,001,2026-05-10_15h09.42.511,false_memory_experiment,2026.1.3,MacIntel,119.9040767,,,,,,156.784,158.283,0,4,4,4,1,5,sweet,chocolate,EN,,,,,,,,,,,,,,,,,,,,,,,,,,,,,,,,,,,,,,,,,,
,,,,,2380228,001,2026-05-10_15h09.42.511,false_memory_experiment,2026.1.3,MacIntel,119.9040767,,,,,,158.289,159.782,0,5,5,5,1,5,sweet,taste,EN,,,,,,,,,,,,,,,,,,,,,,,,,,,,,,,,,,,,,,,,,,
,,,,,2380228,001,2026-05-10_15h09.42.511,false_memory_experiment,2026.1.3,MacIntel,119.9040767,,,,,,159.784,161.282,0,6,6,6,1,5,sweet,honey,EN,,,,,,,,,,,,,,,,,,,,,,,,,,,,,,,,,,,,,,,,,,
,,,,,2380228,001,2026-05-10_15h09.42.511,false_memory_experiment,2026.1.3,MacIntel,119.9040767,,,,,,161.284,162.783,0,7,7,7,1,5,sweet,cake,EN,,,,,,,,,,,,,,,,,,,,,,,,,,,,,,,,,,,,,,,,,,
,,,,,2380228,001,2026-05-10_15h09.42.511,false_memory_experiment,2026.1.3,MacIntel,119.9040767,,,,,,162.785,164.282,0,8,8,8,1,5,sweet,cookie,EN,,,,,,,,,,,,,,,,,,,,,,,,,,,,,,,,,,,,,,,,,,
,,,,,2380228,001,2026-05-10_15h09.42.511,false_memory_experiment,2026.1.3,MacIntel,119.9040767,,,,,,164.284,165.782,0,9,9,9,1,5,sweet,dessert,EN,,,,,,,,,,,,,,,,,,,,,,,,,,,,,,,,,,,,,,,,,,
,,,,,2380228,001,2026-05-10_15h09.42.511,false_memory_experiment,2026.1.3,MacIntel,119.9040767,,,,,,165.784,167.282,0,10,10,10,1,5,sweet,pie,EN,,,,,,,,,,,,,,,,,,,,,,,,,,,,,,,,,,,,,,,,,,
,,,,,2380228,001,2026-05-10_15h09.42.511,false_memory_experiment,2026.1.3,MacIntel,119.9040767,,,,,,167.284,168.782,0,11,11,11,1,5,sweet,waffle,EN,,,,,,,,,,,,,,,,,,,,,,,,,,,,,,,,,,,,,,,,,,
,,,,,2380228,001,2026-05-10_15h09.42.511,false_memory_experiment,2026.1.3,MacIntel,119.9040767,,,,,,,,,,,,,,,,,168.782,168.782,168.872,171.274,left,2.392,,0,0,0,3,1,25 + 28 = 50,left,,,,,,,,,,,,,,,,,,,,,,,,,,,,
,,,,,2380228,001,2026-05-10_15h09.42.511,false_memory_experiment,2026.1.3,MacIntel,119.9040767,,,,,,,,,,,,,,,,,,,171.275,173.023,left,1.732,,0,1,1,24,1,40 - 22 = 19,left,,,,,,,,,,,,,,,,,,,,,,,,,,,,
,,,,,2380228,001,2026-05-10_15h09.42.511,false_memory_experiment,2026.1.3,MacIntel,119.9040767,,,,,,,,,,,,,,,,,,,173.024,174.607,left,1.572,,0,2,2,28,1,17 - 13 = -1,left,,,,,,,,,,,,,,,,,,,,,,,,,,,,
,,,,,2380228,001,2026-05-10_15h09.42.511,false_memory_experiment,2026.1.3,MacIntel,119.9040767,,,,,,,,,,,,,,,,,,,174.609,175.764,right,1.143,,0,3,3,16,1,44 + 5 = 49,right,,,,,,,,,,,,,,,,,,,,,,,,,,,,
,,,,,2380228,001,2026-05-10_15h09.42.511,false_memory_experiment,2026.1.3,MacIntel,119.9040767,,,,,,,,,,,,,,,,,,,175.765,177.549,left,1.772,,0,4,4,25,1,30 + 44 = 73,left,,,,,,,,,,,,,,,,,,,,,,,,,,,,
,,,,,2380228,001,2026-05-10_15h09.42.511,false_memory_experiment,2026.1.3,MacIntel,119.9040767,,,,,,,,,,,,,,,,,,,177.55,179.674,left,2.111,,0,5,5,29,1,13 + 14 = 26,left,,,,,,,,,,,,,,,,,,,,,,,,,,,,
,,,,,2380228,001,2026-05-10_15h09.42.511,false_memory_experiment,2026.1.3,MacIntel,119.9040767,,,,,,,,,,,,,,,,,,,179.675,182.399,left,2.711,,0,6,6,11,1,39 - 15 = 26,left,,,,,,,,,,,,,,,,,,,,,,,,,,,,
,,,,,2380228,001,2026-05-10_15h09.42.511,false_memory_experiment,2026.1.3,MacIntel,119.9040767,,,,,,,,,,,,,,,,,,,182.4,183.794,,,,0,7,7,19,1,11 + 10 = 21,right,,,,,,,,,,,,,,,,,,,,,,,,,,,,
,,,,,2380228,001,2026-05-10_15h09.42.511,false_memory_experiment,2026.1.3,MacIntel,119.9040767,,,,,,,,,,,,,5,,,EN,,,,,,,,,,,,,,right,183.794,186.081,space,2.275,,186.088,188.006,left,0,1.91,,0,0,0,1,1,honey,old,,,,,,,,,,
,,,,,2380228,001,2026-05-10_15h09.42.511,false_memory_experiment,2026.1.3,MacIntel,119.9040767,,,,,,,,,,,,,5,,,EN,,,,,,,,,,,,,,right,,,,,,188.009,188.757,right,1,0.735,,0,1,1,0,1,sugar,old,,,,,,,,,,
,,,,,2380228,001,2026-05-10_15h09.42.511,false_memory_experiment,2026.1.3,MacIntel,119.9040767,,,,,,,,,,,,,5,,,EN,,,,,,,,,,,,,,left,,,,,,188.758,189.815,left,1,1.047,,0,2,2,3,1,phone,distractor,,,,,,,,,,
,,,,,2380228,001,2026-05-10_15h09.42.511,false_memory_experiment,2026.1.3,MacIntel,119.9040767,,,,,,,,,,,,,5,,,EN,,,,,,,,,,,,,,left,,,,,,189.817,191.099,left,1,1.272,,0,3,3,2,1,pen,distractor,,,,,,,,,,
,,,,,2380228,001,2026-05-10_15h09.42.511,false_memory_experiment,2026.1.3,MacIntel,119.9040767,,,,,,,,,,,,,5,,,EN,,,,,,,,,,,,,,left,,,,,,191.101,191.882,left,1,0.772,,0,4,4,4,1,sweet,critical_lure,,,,,,,,,,
,,,,,2380228,001,2026-05-10_15h09.42.511,false_memory_experiment,2026.1.3,MacIntel,119.9040767,,,,,,,,,,,,,,,,,,,,,,,,,,,,,,,,,,,,,,,,,,,,,,,,,0,2,2,4,1,5,48:60,20:25,,
,,,,,2380228,001,2026-05-10_15h09.42.511,false_memory_experiment,2026.1.3,MacIntel,119.9040767,191.882,193.073,space,1.18,,193.089,194.574,0,0,0,0,1,2,tatlı,şeker,TR,,,,,,,,,,,,,,,,,,,,,,,,,,,,,,,,,,,,,,,,,,
,,,,,2380228,001,2026-05-10_15h09.42.511,false_memory_experiment,2026.1.3,MacIntel,119.9040767,,,,,,194.576,196.074,0,1,1,1,1,2,tatlı,çikolata,TR,,,,,,,,,,,,,,,,,,,,,,,,,,,,,,,,,,,,,,,,,,
,,,,,2380228,001,2026-05-10_15h09.42.511,false_memory_experiment,2026.1.3,MacIntel,119.9040767,,,,,,196.075,197.574,0,2,2,2,1,2,tatlı,pasta,TR,,,,,,,,,,,,,,,,,,,,,,,,,,,,,,,,,,,,,,,,,,
,,,,,2380228,001,2026-05-10_15h09.42.511,false_memory_experiment,2026.1.3,MacIntel,119.9040767,,,,,,197.576,199.073,0,3,3,3,1,2,tatlı,bal,TR,,,,,,,,,,,,,,,,,,,,,,,,,,,,,,,,,,,,,,,,,,
,,,,,2380228,001,2026-05-10_15h09.42.511,false_memory_experiment,2026.1.3,MacIntel,119.9040767,,,,,,199.076,200.574,0,4,4,4,1,2,tatlı,reçel,TR,,,,,,,,,,,,,,,,,,,,,,,,,,,,,,,,,,,,,,,,,,
,,,,,2380228,001,2026-05-10_15h09.42.511,false_memory_experiment,2026.1.3,MacIntel,119.9040767,,,,,,200.575,202.073,0,5,5,5,1,2,tatlı,kek,TR,,,,,,,,,,,,,,,,,,,,,,,,,,,,,,,,,,,,,,,,,,
,,,,,2380228,001,2026-05-10_15h09.42.511,false_memory_experiment,2026.1.3,MacIntel,119.9040767,,,,,,202.076,203.573,0,6,6,6,1,2,tatlı,kurabiye,TR,,,,,,,,,,,,,,,,,,,,,,,,,,,,,,,,,,,,,,,,,,
,,,,,2380228,001,2026-05-10_15h09.42.511,false_memory_experiment,2026.1.3,MacIntel,119.9040767,,,,,,203.577,205.073,0,7,7,7,1,2,tatlı,dondurma,TR,,,,,,,,,,,,,,,,,,,,,,,,,,,,,,,,,,,,,,,,,,
,,,,,2380228,001,2026-05-10_15h09.42.511,false_memory_experiment,2026.1.3,MacIntel,119.9040767,,,,,,205.075,206.573,0,8,8,8,1,2,tatlı,gofret,TR,,,,,,,,,,,,,,,,,,,,,,,,,,,,,,,,,,,,,,,,,,
,,,,,2380228,001,2026-05-10_15h09.42.511,false_memory_experiment,2026.1.3,MacIntel,119.9040767,,,,,,206.574,208.073,0,9,9,9,1,2,tatlı,lokum,TR,,,,,,,,,,,,,,,,,,,,,,,,,,,,,,,,,,,,,,,,,,
,,,,,2380228,001,2026-05-10_15h09.42.511,false_memory_experiment,2026.1.3,MacIntel,119.9040767,,,,,,208.075,209.573,0,10,10,10,1,2,tatlı,şerbet,TR,,,,,,,,,,,,,,,,,,,,,,,,,,,,,,,,,,,,,,,,,,
,,,,,2380228,001,2026-05-10_15h09.42.511,false_memory_experiment,2026.1.3,MacIntel,119.9040767,,,,,,209.575,211.074,0,11,11,11,1,2,tatlı,meyve,TR,,,,,,,,,,,,,,,,,,,,,,,,,,,,,,,,,,,,,,,,,,
,,,,,2380228,001,2026-05-10_15h09.42.511,false_memory_experiment,2026.1.3,MacIntel,119.9040767,,,,,,,,,,,,,,,,,211.074,211.074,211.162,213.873,right,2.704,,0,0,0,14,1,24 + 8 = 32,right,,,,,,,,,,,,,,,,,,,,,,,,,,,,
,,,,,2380228,001,2026-05-10_15h09.42.511,false_memory_experiment,2026.1.3,MacIntel,119.9040767,,,,,,,,,,,,,,,,,,,213.874,215.874,left,1.99,,0,1,1,6,1,50 + 45 = 94,left,,,,,,,,,,,,,,,,,,,,,,,,,,,,
,,,,,2380228,001,2026-05-10_15h09.42.511,false_memory_experiment,2026.1.3,MacIntel,119.9040767,,,,,,,,,,,,,,,,,,,215.875,217.648,right,1.761,,0,2,2,38,1,12 - 11 = 1,right,,,,,,,,,,,,,,,,,,,,,,,,,,,,
,,,,,2380228,001,2026-05-10_15h09.42.511,false_memory_experiment,2026.1.3,MacIntel,119.9040767,,,,,,,,,,,,,,,,,,,217.65,219.673,right,2.01,,0,3,3,30,1,11 + 17 = 28,right,,,,,,,,,,,,,,,,,,,,,,,,,,,,
,,,,,2380228,001,2026-05-10_15h09.42.511,false_memory_experiment,2026.1.3,MacIntel,119.9040767,,,,,,,,,,,,,,,,,,,219.674,220.99,right,1.304,,0,4,4,16,1,44 + 5 = 49,right,,,,,,,,,,,,,,,,,,,,,,,,,,,,
,,,,,2380228,001,2026-05-10_15h09.42.511,false_memory_experiment,2026.1.3,MacIntel,119.9040767,,,,,,,,,,,,,,,,,,,220.991,222.373,left,1.371,,0,5,5,22,1,17 - 7 = 11,left,,,,,,,,,,,,,,,,,,,,,,,,,,,,
,,,,,2380228,001,2026-05-10_15h09.42.511,false_memory_experiment,2026.1.3,MacIntel,119.9040767,,,,,,,,,,,,,,,,,,,222.375,223.29,right,0.902,,0,6,6,9,1,10 + 7 = 17,right,,,,,,,,,,,,,,,,,,,,,,,,,,,,
,,,,,2380228,001,2026-05-10_15h09.42.511,false_memory_experiment,2026.1.3,MacIntel,119.9040767,,,,,,,,,,,,,,,,,,,223.292,225.533,right,2.228,,0,7,7,37,1,22 - 16 = 6,right,,,,,,,,,,,,,,,,,,,,,,,,,,,,
,,,,,2380228,001,2026-05-10_15h09.42.511,false_memory_experiment,2026.1.3,MacIntel,119.9040767,,,,,,,,,,,,,,,,,,,225.538,226.077,,,,0,8,8,10,1,24 + 33 = 60,left,,,,,,,,,,,,,,,,,,,,,,,,,,,,
,,,,,2380228,001,2026-05-10_15h09.42.511,false_memory_experiment,2026.1.3,MacIntel,119.9040767,,,,,,,,,,,,,2,,,TR,,,,,,,,,,,,,,right,226.077,228.232,space,2.14,,228.243,234.215,right,1,5.961,,0,0,0,1,1,bal,old,,,,,,,,,,
,,,,,2380228,001,2026-05-10_15h09.42.511,false_memory_experiment,2026.1.3,MacIntel,119.9040767,,,,,,,,,,,,,2,,,TR,,,,,,,,,,,,,,left,,,,,,234.217,234.899,left,1,0.668,,0,1,1,2,1,kalem,distractor,,,,,,,,,,
,,,,,2380228,001,2026-05-10_15h09.42.511,false_memory_experiment,2026.1.3,MacIntel,119.9040767,,,,,,,,,,,,,2,,,TR,,,,,,,,,,,,,,right,,,,,,234.901,236.69,right,1,1.779,,0,2,2,0,1,şeker,old,,,,,,,,,,
,,,,,2380228,001,2026-05-10_15h09.42.511,false_memory_experiment,2026.1.3,MacIntel,119.9040767,,,,,,,,,,,,,2,,,TR,,,,,,,,,,,,,,left,,,,,,236.691,237.307,left,1,0.608,,0,3,3,3,1,saat,distractor,,,,,,,,,,
,,,,,2380228,001,2026-05-10_15h09.42.511,false_memory_experiment,2026.1.3,MacIntel,119.9040767,,,,,,,,,,,,,2,,,TR,,,,,,,,,,,,,,left,,,,,,237.308,238.124,right,0,0.805,,0,4,4,4,1,tatlı,critical_lure,,,,,,,,,,
,,,,,2380228,001,2026-05-10_15h09.42.511,false_memory_experiment,2026.1.3,MacIntel,119.9040767,,,,,,,,,,,,,,,,,,,,,,,,,,,,,,,,,,,,,,,,,,,,,,,,,0,3,3,1,1,2,12:24,5:10,,
,,,,,2380228,001,2026-05-10_15h09.42.511,false_memory_experiment,2026.1.3,MacIntel,119.9040767,238.125,239.232,space,1.095,,239.241,240.731,0,0,0,0,1,4,sleep,bed,EN,,,,,,,,,,,,,,,,,,,,,,,,,,,,,,,,,,,,,,,,,,
,,,,,2380228,001,2026-05-10_15h09.42.511,false_memory_experiment,2026.1.3,MacIntel,119.9040767,,,,,,240.734,242.232,0,1,1,1,1,4,sleep,dream,EN,,,,,,,,,,,,,,,,,,,,,,,,,,,,,,,,,,,,,,,,,,
,,,,,2380228,001,2026-05-10_15h09.42.511,false_memory_experiment,2026.1.3,MacIntel,119.9040767,,,,,,242.234,243.731,0,2,2,2,1,4,sleep,pillow,EN,,,,,,,,,,,,,,,,,,,,,,,,,,,,,,,,,,,,,,,,,,
,,,,,2380228,001,2026-05-10_15h09.42.511,false_memory_experiment,2026.1.3,MacIntel,119.9040767,,,,,,243.734,245.232,0,3,3,3,1,4,sleep,night,EN,,,,,,,,,,,,,,,,,,,,,,,,,,,,,,,,,,,,,,,,,,
,,,,,2380228,001,2026-05-10_15h09.42.511,false_memory_experiment,2026.1.3,MacIntel,119.9040767,,,,,,245.233,246.732,0,4,4,4,1,4,sleep,blanket,EN,,,,,,,,,,,,,,,,,,,,,,,,,,,,,,,,,,,,,,,,,,
,,,,,2380228,001,2026-05-10_15h09.42.511,false_memory_experiment,2026.1.3,MacIntel,119.9040767,,,,,,246.734,248.232,0,5,5,5,1,4,sleep,rest,EN,,,,,,,,,,,,,,,,,,,,,,,,,,,,,,,,,,,,,,,,,,
,,,,,2380228,001,2026-05-10_15h09.42.511,false_memory_experiment,2026.1.3,MacIntel,119.9040767,,,,,,248.233,249.732,0,6,6,6,1,4,sleep,snore,EN,,,,,,,,,,,,,,,,,,,,,,,,,,,,,,,,,,,,,,,,,,
,,,,,2380228,001,2026-05-10_15h09.42.511,false_memory_experiment,2026.1.3,MacIntel,119.9040767,,,,,,249.733,251.232,0,7,7,7,1,4,sleep,tired,EN,,,,,,,,,,,,,,,,,,,,,,,,,,,,,,,,,,,,,,,,,,
,,,,,2380228,001,2026-05-10_15h09.42.511,false_memory_experiment,2026.1.3,MacIntel,119.9040767,,,,,,251.234,252.732,0,8,8,8,1,4,sleep,nap,EN,,,,,,,,,,,,,,,,,,,,,,,,,,,,,,,,,,,,,,,,,,
,,,,,2380228,001,2026-05-10_15h09.42.511,false_memory_experiment,2026.1.3,MacIntel,119.9040767,,,,,,252.734,254.232,0,9,9,9,1,4,sleep,dark,EN,,,,,,,,,,,,,,,,,,,,,,,,,,,,,,,,,,,,,,,,,,
,,,,,2380228,001,2026-05-10_15h09.42.511,false_memory_experiment,2026.1.3,MacIntel,119.9040767,,,,,,254.234,255.732,0,10,10,10,1,4,sleep,pajamas,EN,,,,,,,,,,,,,,,,,,,,,,,,,,,,,,,,,,,,,,,,,,
,,,,,2380228,001,2026-05-10_15h09.42.511,false_memory_experiment,2026.1.3,MacIntel,119.9040767,,,,,,255.734,257.231,0,11,11,11,1,4,sleep,yawn,EN,,,,,,,,,,,,,,,,,,,,,,,,,,,,,,,,,,,,,,,,,,
,,,,,2380228,001,2026-05-10_15h09.42.511,false_memory_experiment,2026.1.3,MacIntel,119.9040767,,,,,,,,,,,,,,,,,257.231,257.231,257.306,259.34,right,2.027,,0,0,0,35,1,44 - 7 = 37,right,,,,,,,,,,,,,,,,,,,,,,,,,,,,
,,,,,2380228,001,2026-05-10_15h09.42.511,false_memory_experiment,2026.1.3,MacIntel,119.9040767,,,,,,,,,,,,,,,,,,,259.344,261.032,left,1.679,,0,1,1,2,1,46 - 24 = 25,left,,,,,,,,,,,,,,,,,,,,,,,,,,,,
,,,,,2380228,001,2026-05-10_15h09.42.511,false_memory_experiment,2026.1.3,MacIntel,119.9040767,,,,,,,,,,,,,,,,,,,261.032,262.349,left,1.304,,0,2,2,3,1,25 + 28 = 50,left,,,,,,,,,,,,,,,,,,,,,,,,,,,,
,,,,,2380228,001,2026-05-10_15h09.42.511,false_memory_experiment,2026.1.3,MacIntel,119.9040767,,,,,,,,,,,,,,,,,,,262.35,263.781,left,1.421,,0,3,3,26,1,38 - 18 = 19,left,,,,,,,,,,,,,,,,,,,,,,,,,,,,
,,,,,2380228,001,2026-05-10_15h09.42.511,false_memory_experiment,2026.1.3,MacIntel,119.9040767,,,,,,,,,,,,,,,,,,,263.782,264.949,right,1.153,,0,4,4,38,1,12 - 11 = 1,right,,,,,,,,,,,,,,,,,,,,,,,,,,,,
,,,,,2380228,001,2026-05-10_15h09.42.511,false_memory_experiment,2026.1.3,MacIntel,119.9040767,,,,,,,,,,,,,,,,,,,264.95,266.515,right,1.555,,0,5,5,18,1,18 + 6 = 24,right,,,,,,,,,,,,,,,,,,,,,,,,,,,,
,,,,,2380228,001,2026-05-10_15h09.42.511,false_memory_experiment,2026.1.3,MacIntel,119.9040767,,,,,,,,,,,,,,,,,,,266.517,267.531,left,1.001,,0,6,6,28,1,17 - 13 = -1,left,,,,,,,,,,,,,,,,,,,,,,,,,,,,
,,,,,2380228,001,2026-05-10_15h09.42.511,false_memory_experiment,2026.1.3,MacIntel,119.9040767,,,,,,,,,,,,,,,,,,,267.533,268.89,left,1.347,,0,7,7,34,1,32 + 41 = 70,left,,,,,,,,,,,,,,,,,,,,,,,,,,,,
,,,,,2380228,001,2026-05-10_15h09.42.511,false_memory_experiment,2026.1.3,MacIntel,119.9040767,,,,,,,,,,,,,,,,,,,268.891,270.698,left,1.797,,0,8,8,25,1,30 + 44 = 73,left,,,,,,,,,,,,,,,,,,,,,,,,,,,,
,,,,,2380228,001,2026-05-10_15h09.42.511,false_memory_experiment,2026.1.3,MacIntel,119.9040767,,,,,,,,,,,,,,,,,,,270.7,272.048,right,1.337,,0,9,9,1,1,13 - 9 = 4,right,,,,,,,,,,,,,,,,,,,,,,,,,,,,
,,,,,2380228,001,2026-05-10_15h09.42.511,false_memory_experiment,2026.1.3,MacIntel,119.9040767,,,,,,,,,,,,,,,,,,,272.051,272.236,,,,0,10,10,37,1,22 - 16 = 6,right,,,,,,,,,,,,,,,,,,,,,,,,,,,,
,,,,,2380228,001,2026-05-10_15h09.42.511,false_memory_experiment,2026.1.3,MacIntel,119.9040767,,,,,,,,,,,,,4,,,EN,,,,,,,,,,,,,,left,272.236,274.165,space,1.916,,274.178,275.298,left,1,1.113,,0,0,0,2,1,chair,distractor,,,,,,,,,,
,,,,,2380228,001,2026-05-10_15h09.42.511,false_memory_experiment,2026.1.3,MacIntel,119.9040767,,,,,,,,,,,,,4,,,EN,,,,,,,,,,,,,,right,,,,,,275.299,276.298,right,1,0.987,,0,1,1,0,1,bed,old,,,,,,,,,,
,,,,,2380228,001,2026-05-10_15h09.42.511,false_memory_experiment,2026.1.3,MacIntel,119.9040767,,,,,,,,,,,,,4,,,EN,,,,,,,,,,,,,,left,,,,,,276.299,277.307,right,0,0.998,,0,2,2,4,1,sleep,critical_lure,,,,,,,,,,
,,,,,2380228,001,2026-05-10_15h09.42.511,false_memory_experiment,2026.1.3,MacIntel,119.9040767,,,,,,,,,,,,,4,,,EN,,,,,,,,,,,,,,left,,,,,,277.308,277.965,left,1,0.651,,0,3,3,3,1,car,distractor,,,,,,,,,,
,,,,,2380228,001,2026-05-10_15h09.42.511,false_memory_experiment,2026.1.3,MacIntel,119.9040767,,,,,,,,,,,,,4,,,EN,,,,,,,,,,,,,,right,,,,,,277.966,278.707,right,1,0.731,,0,4,4,1,1,yawn,old,,,,,,,,,,
,,,,,2380228,001,2026-05-10_15h09.42.511,false_memory_experiment,2026.1.3,MacIntel,119.9040767,,,,,,,,,,,,,,,,,,,,,,,,,,,,,,,,,,,,,,,,,,,,,,,,,0,4,4,3,1,4,36:48,15:20,,
,,,,,2380228,001,2026-05-10_15h09.42.511,false_memory_experiment,2026.1.3,MacIntel,119.9040767,278.708,279.648,space,0.929,,279.652,281.149,0,0,0,0,1,6,cold,snow,EN,,,,,,,,,,,,,,,,,,,,,,,,,,,,,,,,,,,,,,,,,,
,,,,,2380228,001,2026-05-10_15h09.42.511,false_memory_experiment,2026.1.3,MacIntel,119.9040767,,,,,,281.151,282.648,0,1,1,1,1,6,cold,ice,EN,,,,,,,,,,,,,,,,,,,,,,,,,,,,,,,,,,,,,,,,,,
,,,,,2380228,001,2026-05-10_15h09.42.511,false_memory_experiment,2026.1.3,MacIntel,119.9040767,,,,,,282.65,284.148,0,2,2,2,1,6,cold,winter,EN,,,,,,,,,,,,,,,,,,,,,,,,,,,,,,,,,,,,,,,,,,
,,,,,2380228,001,2026-05-10_15h09.42.511,false_memory_experiment,2026.1.3,MacIntel,119.9040767,,,,,,284.15,285.648,0,3,3,3,1,6,cold,storm,EN,,,,,,,,,,,,,,,,,,,,,,,,,,,,,,,,,,,,,,,,,,
,,,,,2380228,001,2026-05-10_15h09.42.511,false_memory_experiment,2026.1.3,MacIntel,119.9040767,,,,,,285.65,287.149,0,4,4,4,1,6,cold,shiver,EN,,,,,,,,,,,,,,,,,,,,,,,,,,,,,,,,,,,,,,,,,,
,,,,,2380228,001,2026-05-10_15h09.42.511,false_memory_experiment,2026.1.3,MacIntel,119.9040767,,,,,,287.15,288.65,0,5,5,5,1,6,cold,arctic,EN,,,,,,,,,,,,,,,,,,,,,,,,,,,,,,,,,,,,,,,,,,
,,,,,2380228,001,2026-05-10_15h09.42.511,false_memory_experiment,2026.1.3,MacIntel,119.9040767,,,,,,288.656,290.148,0,6,6,6,1,6,cold,weather,EN,,,,,,,,,,,,,,,,,,,,,,,,,,,,,,,,,,,,,,,,,,
,,,,,2380228,001,2026-05-10_15h09.42.511,false_memory_experiment,2026.1.3,MacIntel,119.9040767,,,,,,290.148,291.648,0,7,7,7,1,6,cold,freeze,EN,,,,,,,,,,,,,,,,,,,,,,,,,,,,,,,,,,,,,,,,,,
,,,,,2380228,001,2026-05-10_15h09.42.511,false_memory_experiment,2026.1.3,MacIntel,119.9040767,,,,,,291.65,293.148,0,8,8,8,1,6,cold,chill,EN,,,,,,,,,,,,,,,,,,,,,,,,,,,,,,,,,,,,,,,,,,
,,,,,2380228,001,2026-05-10_15h09.42.511,false_memory_experiment,2026.1.3,MacIntel,119.9040767,,,,,,293.151,294.649,0,9,9,9,1,6,cold,frost,EN,,,,,,,,,,,,,,,,,,,,,,,,,,,,,,,,,,,,,,,,,,
,,,,,2380228,001,2026-05-10_15h09.42.511,false_memory_experiment,2026.1.3,MacIntel,119.9040767,,,,,,294.651,296.149,0,10,10,10,1,6,cold,coat,EN,,,,,,,,,,,,,,,,,,,,,,,,,,,,,,,,,,,,,,,,,,
,,,,,2380228,001,2026-05-10_15h09.42.511,false_memory_experiment,2026.1.3,MacIntel,119.9040767,,,,,,296.151,297.648,0,11,11,11,1,6,cold,gloves,EN,,,,,,,,,,,,,,,,,,,,,,,,,,,,,,,,,,,,,,,,,,
,,,,,2380228,001,2026-05-10_15h09.42.511,false_memory_experiment,2026.1.3,MacIntel,119.9040767,,,,,,,,,,,,,,,,,297.649,297.649,297.726,302.544,left,4.808,,0,0,0,31,1,39 + 49 = 93,left,,,,,,,,,,,,,,,,,,,,,,,,,,,,
,,,,,2380228,001,2026-05-10_15h09.42.511,false_memory_experiment,2026.1.3,MacIntel,119.9040767,,,,,,,,,,,,,,,,,,,302.545,304.052,right,1.494,,0,1,1,37,1,22 - 16 = 6,right,,,,,,,,,,,,,,,,,,,,,,,,,,,,
,,,,,2380228,001,2026-05-10_15h09.42.511,false_memory_experiment,2026.1.3,MacIntel,119.9040767,,,,,,,,,,,,,,,,,,,304.054,306.194,right,2.127,,0,2,2,20,1,37 + 41 = 78,right,,,,,,,,,,,,,,,,,,,,,,,,,,,,
,,,,,2380228,001,2026-05-10_15h09.42.511,false_memory_experiment,2026.1.3,MacIntel,119.9040767,,,,,,,,,,,,,,,,,,,306.195,307.544,left,1.337,,0,3,3,15,1,5 + 32 = 42,left,,,,,,,,,,,,,,,,,,,,,,,,,,,,
,,,,,2380228,001,2026-05-10_15h09.42.511,false_memory_experiment,2026.1.3,MacIntel,119.9040767,,,,,,,,,,,,,,,,,,,307.546,311.544,right,3.983,,0,4,4,27,1,38 + 43 = 81,right,,,,,,,,,,,,,,,,,,,,,,,,,,,,
,,,,,2380228,001,2026-05-10_15h09.42.511,false_memory_experiment,2026.1.3,MacIntel,119.9040767,,,,,,,,,,,,,,,,,,,311.545,312.602,right,1.046,,0,5,5,9,1,10 + 7 = 17,right,,,,,,,,,,,,,,,,,,,,,,,,,,,,
,,,,,2380228,001,2026-05-10_15h09.42.511,false_memory_experiment,2026.1.3,MacIntel,119.9040767,,,,,,,,,,,,,,,,,,,312.604,312.656,,,,0,6,6,22,1,17 - 7 = 11,left,,,,,,,,,,,,,,,,,,,,,,,,,,,,
,,,,,2380228,001,2026-05-10_15h09.42.511,false_memory_experiment,2026.1.3,MacIntel,119.9040767,,,,,,,,,,,,,6,,,EN,,,,,,,,,,,,,,left,312.656,314.244,space,1.577,,314.25,315.42,left,1,1.162,,0,0,0,2,1,cup,distractor,,,,,,,,,,
,,,,,2380228,001,2026-05-10_15h09.42.511,false_memory_experiment,2026.1.3,MacIntel,119.9040767,,,,,,,,,,,,,6,,,EN,,,,,,,,,,,,,,left,,,,,,315.422,316.262,right,0,0.827,,0,1,1,4,1,cold,critical_lure,,,,,,,,,,
,,,,,2380228,001,2026-05-10_15h09.42.511,false_memory_experiment,2026.1.3,MacIntel,119.9040767,,,,,,,,,,,,,6,,,EN,,,,,,,,,,,,,,left,,,,,,316.262,317.152,left,1,0.883,,0,2,2,3,1,table,distractor,,,,,,,,,,
,,,,,2380228,001,2026-05-10_15h09.42.511,false_memory_experiment,2026.1.3,MacIntel,119.9040767,,,,,,,,,,,,,6,,,EN,,,,,,,,,,,,,,right,,,,,,317.154,317.919,right,1,0.756,,0,3,3,0,1,snow,old,,,,,,,,,,
,,,,,2380228,001,2026-05-10_15h09.42.511,false_memory_experiment,2026.1.3,MacIntel,119.9040767,,,,,,,,,,,,,6,,,EN,,,,,,,,,,,,,,right,,,,,,317.92,318.587,left,0,0.658,,0,4,4,1,1,gloves,old,,,,,,,,,,
,,,,,2380228,001,2026-05-10_15h09.42.511,false_memory_experiment,2026.1.3,MacIntel,119.9040767,,,,,,,,,,,,,,,,,,,,,,,,,,,,,,,,,,,,,,,,,,,,,,,,,0,5,5,5,1,6,60:72,25:30,,
,,,,,2380228,001,2026-05-10_15h09.42.511,false_memory_experiment,2026.1.3,MacIntel,119.9040767,,,,,,,,,,,,,,,,,,,,,,,,,,,,,,,,,,,,,,,,,,,,,,,,,,,,,,,,,318.587,321.586
