instructions.started,instructions.stopped,key_resp_instr.keys,key_resp_instr.rt,key_resp_instr.duration,participant,session,date,expName,psychopyVersion,OS,frameRate,start_set.started,start_set.stopped,key_resp_start_set.keys,key_resp_start_set.rt,key_resp_start_set.duration,study.started,study.stopped,study_loop.thisRepN,study_loop.thisTrialN,study_loop.thisN,study_loop.thisIndex,study_loop.ran,list_id,theme,study_word,language,timer.started,timer.stopped,distractor.started,distractor.stopped,key_resp.keys,key_resp.rt,key_resp.duration,distractor_loop.thisRepN,distractor_loop.thisTrialN,distractor_loop.thisN,distractor_loop.thisIndex,distractor_loop.ran,problem,correct_resp,start_test.started,start_test.stopped,key_resp_start_test.keys,key_resp_start_test.rt,key_resp_start_test.duration,test.started,test.stopped,key_resp_test.keys,key_resp_test.corr,key_resp_test.rt,key_resp_test.duration,test_loop.thisRepN,test_loop.thisTrialN,test_loop.thisN,test_loop.thisIndex,test_loop.ran,test_word,word_type,blocks_loop.thisRepN,blocks_loop.thisTrialN,blocks_loop.thisN,blocks_loop.thisIndex,blocks_loop.ran,block_id,study_rows,test_rows,end.started,end.stopped
0,36.027,space,36.001,,ogumus,001,2026-05-11_23h15.17.348,false_memory_experiment,2026.1.3,Win32,165.0165017,,,,,,,,,,,,,,,,,,,,,,,,,,,,,,,,,,,,,,,,,,,,,,,,,,,,,,,,,,
,,,,,ogumus,001,2026-05-11_23h15.17.348,false_memory_experiment,2026.1.3,Win32,165.0165017,36.034,37.644,space,1.589,,37.649,39.141,0,0,0,0,1,2,tatlı,şeker,TR,,,,,,,,,,,,,,,,,,,,,,,,,,,,,,,,,,,,,,,,,,
,,,,,ogumus,001,2026-05-11_23h15.17.348,false_memory_experiment,2026.1.3,Win32,165.0165017,,,,,,39.142,40.645,0,1,1,1,1,2,tatlı,çikolata,TR,,,,,,,,,,,,,,,,,,,,,,,,,,,,,,,,,,,,,,,,,,
,,,,,ogumus,001,2026-05-11_23h15.17.348,false_memory_experiment,2026.1.3,Win32,165.0165017,,,,,,40.645,42.141,0,2,2,2,1,2,tatlı,pasta,TR,,,,,,,,,,,,,,,,,,,,,,,,,,,,,,,,,,,,,,,,,,
,,,,,ogumus,001,2026-05-11_23h15.17.348,false_memory_experiment,2026.1.3,Win32,165.0165017,,,,,,42.142,43.644,0,3,3,3,1,2,tatlı,bal,TR,,,,,,,,,,,,,,,,,,,,,,,,,,,,,,,,,,,,,,,,,,
,,,,,ogumus,001,2026-05-11_23h15.17.348,false_memory_experiment,2026.1.3,Win32,165.0165017,,,,,,43.645,45.141,0,4,4,4,1,2,tatlı,reçel,TR,,,,,,,,,,,,,,,,,,,,,,,,,,,,,,,,,,,,,,,,,,
,,,,,ogumus,001,2026-05-11_23h15.17.348,false_memory_experiment,2026.1.3,Win32,165.0165017,,,,,,45.142,46.645,0,5,5,5,1,2,tatlı,kek,TR,,,,,,,,,,,,,,,,,,,,,,,,,,,,,,,,,,,,,,,,,,
,,,,,ogumus,001,2026-05-11_23h15.17.348,false_memory_experiment,2026.1.3,Win32,165.0165017,,,,,,46.645,48.141,0,6,6,6,1,2,tatlı,kurabiye,TR,,,,,,,,,,,,,,,,,,,,,,,,,,,,,,,,,,,,,,,,,,
,,,,,ogumus,001,2026-05-11_23h15.17.348,false_memory_experiment,2026.1.3,Win32,165.0165017,,,,,,48.142,49.645,0,7,7,7,1,2,tatlı,dondurma,TR,,,,,,,,,,,,,,,,,,,,,,,,,,,,,,,,,,,,,,,,,,
,,,,,ogumus,001,2026-05-11_23h15.17.348,false_memory_experiment,2026.1.3,Win32,165.0165017,,,,,,49.645,51.142,0,8,8,8,1,2,tatlı,gofret,TR,,,,,,,,,,,,,,,,,,,,,,,,,,,,,,,,,,,,,,,,,,
,,,,,ogumus,001,2026-05-11_23h15.17.348,false_memory_experiment,2026.1.3,Win32,165.0165017,,,,,,51.142,52.644,0,9,9,9,1,2,tatlı,lokum,TR,,,,,,,,,,,,,,,,,,,,,,,,,,,,,,,,,,,,,,,,,,
,,,,,ogumus,001,2026-05-11_23h15.17.348,false_memory_experiment,2026.1.3,Win32,165.0165017,,,,,,52.644,54.141,0,10,10,10,1,2,tatlı,şerbet,TR,,,,,,,,,,,,,,,,,,,,,,,,,,,,,,,,,,,,,,,,,,
,,,,,ogumus,001,2026-05-11_23h15.17.348,false_memory_experiment,2026.1.3,Win32,165.0165017,,,,,,54.141,55.644,0,11,11,11,1,2,tatlı,meyve,TR,,,,,,,,,,,,,,,,,,,,,,,,,,,,,,,,,,,,,,,,,,
,,,,,ogumus,001,2026-05-11_23h15.17.348,false_memory_experiment,2026.1.3,Win32,165.0165017,,,,,,,,,,,,,,,,,55.644,55.644,55.771,58.838,left,3.053,,0,0,0,36,1,28 + 42 = 69,left,,,,,,,,,,,,,,,,,,,,,,,,,,,,
,,,,,ogumus,001,2026-05-11_23h15.17.348,false_memory_experiment,2026.1.3,Win32,165.0165017,,,,,,,,,,,,,,,,,,,58.839,60.717,right,1.859,,0,1,1,30,1,11 + 17 = 28,right,,,,,,,,,,,,,,,,,,,,,,,,,,,,
,,,,,ogumus,001,2026-05-11_23h15.17.348,false_memory_experiment,2026.1.3,Win32,165.0165017,,,,,,,,,,,,,,,,,,,60.717,62.517,left,1.779,,0,2,2,34,1,32 + 41 = 70,left,,,,,,,,,,,,,,,,,,,,,,,,,,,,
,,,,,ogumus,001,2026-05-11_23h15.17.348,false_memory_experiment,2026.1.3,Win32,165.0165017,,,,,,,,,,,,,,,,,,,62.517,64.51,right,1.982,,0,3,3,9,1,10 + 7 = 17,right,,,,,,,,,,,,,,,,,,,,,,,,,,,,
,,,,,ogumus,001,2026-05-11_23h15.17.348,false_memory_experiment,2026.1.3,Win32,165.0165017,,,,,,,,,,,,,,,,,,,64.512,66.868,right,2.348,,0,4,4,37,1,22 - 16 = 6,right,,,,,,,,,,,,,,,,,,,,,,,,,,,,
,,,,,ogumus,001,2026-05-11_23h15.17.348,false_memory_experiment,2026.1.3,Win32,165.0165017,,,,,,,,,,,,,,,,,,,66.869,69.94,left,3.058,,0,5,5,0,1,8 + 39 = 46,left,,,,,,,,,,,,,,,,,,,,,,,,,,,,
,,,,,ogumus,001,2026-05-11_23h15.17.348,false_memory_experiment,2026.1.3,Win32,165.0165017,,,,,,,,,,,,,,,,,,,69.941,70.65,,,,0,6,6,3,1,25 + 28 = 50,left,,,,,,,,,,,,,,,,,,,,,,,,,,,,
,,,,,ogumus,001,2026-05-11_23h15.17.348,false_memory_experiment,2026.1.3,Win32,165.0165017,,,,,,,,,,,,,2,,,TR,,,,,,,,,,,,,,left,70.65,73.462,space,2.797,,73.468,76.801,left,1,3.32,,0,0,0,3,1,saat,distractor,,,,,,,,,,
,,,,,ogumus,001,2026-05-11_23h15.17.348,false_memory_experiment,2026.1.3,Win32,165.0165017,,,,,,,,,,,,,2,,,TR,,,,,,,,,,,,,,right,,,,,,76.802,77.825,right,1,1.021,,0,1,1,1,1,bal,old,,,,,,,,,,
,,,,,ogumus,001,2026-05-11_23h15.17.348,false_memory_experiment,2026.1.3,Win32,165.0165017,,,,,,,,,,,,,2,,,TR,,,,,,,,,,,,,,left,,,,,,77.826,79.819,right,0,1.989,,0,2,2,4,1,tatlı,critical_lure,,,,,,,,,,
,,,,,ogumus,001,2026-05-11_23h15.17.348,false_memory_experiment,2026.1.3,Win32,165.0165017,,,,,,,,,,,,,2,,,TR,,,,,,,,,,,,,,left,,,,,,79.819,81.061,left,1,1.239,,0,3,3,2,1,kalem,distractor,,,,,,,,,,
,,,,,ogumus,001,2026-05-11_23h15.17.348,false_memory_experiment,2026.1.3,Win32,165.0165017,,,,,,,,,,,,,2,,,TR,,,,,,,,,,,,,,right,,,,,,81.061,81.837,right,1,0.767,,0,4,4,0,1,şeker,old,,,,,,,,,,
,,,,,ogumus,001,2026-05-11_23h15.17.348,false_memory_experiment,2026.1.3,Win32,165.0165017,,,,,,,,,,,,,,,,,,,,,,,,,,,,,,,,,,,,,,,,,,,,,,,,,0,0,0,1,1,2,12:24,5:10,,
,,,,,ogumus,001,2026-05-11_23h15.17.348,false_memory_experiment,2026.1.3,Win32,165.0165017,81.837,83.582,space,1.726,,83.586,85.08,0,0,0,0,1,4,sleep,bed,EN,,,,,,,,,,,,,,,,,,,,,,,,,,,,,,,,,,,,,,,,,,
,,,,,ogumus,001,2026-05-11_23h15.17.348,false_memory_experiment,2026.1.3,Win32,165.0165017,,,,,,85.08,86.582,0,1,1,1,1,4,sleep,dream,EN,,,,,,,,,,,,,,,,,,,,,,,,,,,,,,,,,,,,,,,,,,
,,,,,ogumus,001,2026-05-11_23h15.17.348,false_memory_experiment,2026.1.3,Win32,165.0165017,,,,,,86.584,88.079,0,2,2,2,1,4,sleep,pillow,EN,,,,,,,,,,,,,,,,,,,,,,,,,,,,,,,,,,,,,,,,,,
,,,,,ogumus,001,2026-05-11_23h15.17.348,false_memory_experiment,2026.1.3,Win32,165.0165017,,,,,,88.08,89.582,0,3,3,3,1,4,sleep,night,EN,,,,,,,,,,,,,,,,,,,,,,,,,,,,,,,,,,,,,,,,,,
,,,,,ogumus,001,2026-05-11_23h15.17.348,false_memory_experiment,2026.1.3,Win32,165.0165017,,,,,,89.583,91.08,0,4,4,4,1,4,sleep,blanket,EN,,,,,,,,,,,,,,,,,,,,,,,,,,,,,,,,,,,,,,,,,,
,,,,,ogumus,001,2026-05-11_23h15.17.348,false_memory_experiment,2026.1.3,Win32,165.0165017,,,,,,91.08,92.582,0,5,5,5,1,4,sleep,rest,EN,,,,,,,,,,,,,,,,,,,,,,,,,,,,,,,,,,,,,,,,,,
,,,,,ogumus,001,2026-05-11_23h15.17.348,false_memory_experiment,2026.1.3,Win32,165.0165017,,,,,,92.583,94.079,0,6,6,6,1,4,sleep,snore,EN,,,,,,,,,,,,,,,,,,,,,,,,,,,,,,,,,,,,,,,,,,
,,,,,ogumus,001,2026-05-11_23h15.17.348,false_memory_experiment,2026.1.3,Win32,165.0165017,,,,,,94.08,95.582,0,7,7,7,1,4,sleep,tired,EN,,,,,,,,,,,,,,,,,,,,,,,,,,,,,,,,,,,,,,,,,,
,,,,,ogumus,001,2026-05-11_23h15.17.348,false_memory_experiment,2026.1.3,Win32,165.0165017,,,,,,95.583,97.079,0,8,8,8,1,4,sleep,nap,EN,,,,,,,,,,,,,,,,,,,,,,,,,,,,,,,,,,,,,,,,,,
,,,,,ogumus,001,2026-05-11_23h15.17.348,false_memory_experiment,2026.1.3,Win32,165.0165017,,,,,,97.079,98.582,0,9,9,9,1,4,sleep,dark,EN,,,,,,,,,,,,,,,,,,,,,,,,,,,,,,,,,,,,,,,,,,
,,,,,ogumus,001,2026-05-11_23h15.17.348,false_memory_experiment,2026.1.3,Win32,165.0165017,,,,,,98.584,100.079,0,10,10,10,1,4,sleep,pajamas,EN,,,,,,,,,,,,,,,,,,,,,,,,,,,,,,,,,,,,,,,,,,
,,,,,ogumus,001,2026-05-11_23h15.17.348,false_memory_experiment,2026.1.3,Win32,165.0165017,,,,,,100.079,101.582,0,11,11,11,1,4,sleep,yawn,EN,,,,,,,,,,,,,,,,,,,,,,,,,,,,,,,,,,,,,,,,,,
,,,,,ogumus,001,2026-05-11_23h15.17.348,false_memory_experiment,2026.1.3,Win32,165.0165017,,,,,,,,,,,,,,,,,101.582,101.582,101.693,105.697,right,3.986,,0,0,0,20,1,37 + 41 = 78,right,,,,,,,,,,,,,,,,,,,,,,,,,,,,
,,,,,ogumus,001,2026-05-11_23h15.17.348,false_memory_experiment,2026.1.3,Win32,165.0165017,,,,,,,,,,,,,,,,,,,105.697,108.915,right,3.201,,0,1,1,32,1,38 - 28 = 10,right,,,,,,,,,,,,,,,,,,,,,,,,,,,,
,,,,,ogumus,001,2026-05-11_23h15.17.348,false_memory_experiment,2026.1.3,Win32,165.0165017,,,,,,,,,,,,,,,,,,,108.916,110.442,left,1.524,,0,2,2,13,1,5 + 6 = 6,left,,,,,,,,,,,,,,,,,,,,,,,,,,,,
,,,,,ogumus,001,2026-05-11_23h15.17.348,false_memory_experiment,2026.1.3,Win32,165.0165017,,,,,,,,,,,,,,,,,,,110.443,113.454,left,3,,0,3,3,0,1,8 + 39 = 46,left,,,,,,,,,,,,,,,,,,,,,,,,,,,,
,,,,,ogumus,001,2026-05-11_23h15.17.348,false_memory_experiment,2026.1.3,Win32,165.0165017,,,,,,,,,,,,,,,,,,,113.455,115.74,left,2.269,,0,4,4,2,1,46 - 24 = 25,left,,,,,,,,,,,,,,,,,,,,,,,,,,,,
,,,,,ogumus,001,2026-05-11_23h15.17.348,false_memory_experiment,2026.1.3,Win32,165.0165017,,,,,,,,,,,,,,,,,,,115.74,116.583,,,,0,5,5,14,1,24 + 8 = 32,right,,,,,,,,,,,,,,,,,,,,,,,,,,,,
,,,,,ogumus,001,2026-05-11_23h15.17.348,false_memory_experiment,2026.1.3,Win32,165.0165017,,,,,,,,,,,,,4,,,EN,,,,,,,,,,,,,,right,116.583,118.32,space,1.725,,118.325,120.364,right,1,2.021,,0,0,0,0,1,bed,old,,,,,,,,,,
,,,,,ogumus,001,2026-05-11_23h15.17.348,false_memory_experiment,2026.1.3,Win32,165.0165017,,,,,,,,,,,,,4,,,EN,,,,,,,,,,,,,,left,,,,,,120.364,121.52,left,1,1.153,,0,1,1,3,1,car,distractor,,,,,,,,,,
,,,,,ogumus,001,2026-05-11_23h15.17.348,false_memory_experiment,2026.1.3,Win32,165.0165017,,,,,,,,,,,,,4,,,EN,,,,,,,,,,,,,,left,,,,,,121.521,122.315,left,1,0.789,,0,2,2,2,1,chair,distractor,,,,,,,,,,
,,,,,ogumus,001,2026-05-11_23h15.17.348,false_memory_experiment,2026.1.3,Win32,165.0165017,,,,,,,,,,,,,4,,,EN,,,,,,,,,,,,,,right,,,,,,122.315,123.254,right,1,0.934,,0,3,3,1,1,yawn,old,,,,,,,,,,
,,,,,ogumus,001,2026-05-11_23h15.17.348,false_memory_experiment,2026.1.3,Win32,165.0165017,,,,,,,,,,,,,4,,,EN,,,,,,,,,,,,,,left,,,,,,123.254,124.096,right,0,0.84,,0,4,4,4,1,sleep,critical_lure,,,,,,,,,,
,,,,,ogumus,001,2026-05-11_23h15.17.348,false_memory_experiment,2026.1.3,Win32,165.0165017,,,,,,,,,,,,,,,,,,,,,,,,,,,,,,,,,,,,,,,,,,,,,,,,,0,1,1,3,1,4,36:48,15:20,,
,,,,,ogumus,001,2026-05-11_23h15.17.348,false_memory_experiment,2026.1.3,Win32,165.0165017,124.097,125.005,space,0.895,,125.009,126.502,0,0,0,0,1,6,cold,snow,EN,,,,,,,,,,,,,,,,,,,,,,,,,,,,,,,,,,,,,,,,,,
,,,,,ogumus,001,2026-05-11_23h15.17.348,false_memory_experiment,2026.1.3,Win32,165.0165017,,,,,,126.503,128.005,0,1,1,1,1,6,cold,ice,EN,,,,,,,,,,,,,,,,,,,,,,,,,,,,,,,,,,,,,,,,,,
,,,,,ogumus,001,2026-05-11_23h15.17.348,false_memory_experiment,2026.1.3,Win32,165.0165017,,,,,,128.005,129.502,0,2,2,2,1,6,cold,winter,EN,,,,,,,,,,,,,,,,,,,,,,,,,,,,,,,,,,,,,,,,,,
,,,,,ogumus,001,2026-05-11_23h15.17.348,false_memory_experiment,2026.1.3,Win32,165.0165017,,,,,,129.502,131.005,0,3,3,3,1,6,cold,storm,EN,,,,,,,,,,,,,,,,,,,,,,,,,,,,,,,,,,,,,,,,,,
,,,,,ogumus,001,2026-05-11_23h15.17.348,false_memory_experiment,2026.1.3,Win32,165.0165017,,,,,,131.006,132.503,0,4,4,4,1,6,cold,shiver,EN,,,,,,,,,,,,,,,,,,,,,,,,,,,,,,,,,,,,,,,,,,
,,,,,ogumus,001,2026-05-11_23h15.17.348,false_memory_experiment,2026.1.3,Win32,165.0165017,,,,,,132.505,134.005,0,5,5,5,1,6,cold,arctic,EN,,,,,,,,,,,,,,,,,,,,,,,,,,,,,,,,,,,,,,,,,,
,,,,,ogumus,001,2026-05-11_23h15.17.348,false_memory_experiment,2026.1.3,Win32,165.0165017,,,,,,134.006,135.502,0,6,6,6,1,6,cold,weather,EN,,,,,,,,,,,,,,,,,,,,,,,,,,,,,,,,,,,,,,,,,,
,,,,,ogumus,001,2026-05-11_23h15.17.348,false_memory_experiment,2026.1.3,Win32,165.0165017,,,,,,135.503,137.005,0,7,7,7,1,6,cold,freeze,EN,,,,,,,,,,,,,,,,,,,,,,,,,,,,,,,,,,,,,,,,,,
,,,,,ogumus,001,2026-05-11_23h15.17.348,false_memory_experiment,2026.1.3,Win32,165.0165017,,,,,,137.006,138.502,0,8,8,8,1,6,cold,chill,EN,,,,,,,,,,,,,,,,,,,,,,,,,,,,,,,,,,,,,,,,,,
,,,,,ogumus,001,2026-05-11_23h15.17.348,false_memory_experiment,2026.1.3,Win32,165.0165017,,,,,,138.503,140.005,0,9,9,9,1,6,cold,frost,EN,,,,,,,,,,,,,,,,,,,,,,,,,,,,,,,,,,,,,,,,,,
,,,,,ogumus,001,2026-05-11_23h15.17.348,false_memory_experiment,2026.1.3,Win32,165.0165017,,,,,,140.006,141.502,0,10,10,10,1,6,cold,coat,EN,,,,,,,,,,,,,,,,,,,,,,,,,,,,,,,,,,,,,,,,,,
,,,,,ogumus,001,2026-05-11_23h15.17.348,false_memory_experiment,2026.1.3,Win32,165.0165017,,,,,,141.502,143.005,0,11,11,11,1,6,cold,gloves,EN,,,,,,,,,,,,,,,,,,,,,,,,,,,,,,,,,,,,,,,,,,
,,,,,ogumus,001,2026-05-11_23h15.17.348,false_memory_experiment,2026.1.3,Win32,165.0165017,,,,,,,,,,,,,,,,,143.005,143.005,143.123,145.654,right,2.513,,0,0,0,37,1,22 - 16 = 6,right,,,,,,,,,,,,,,,,,,,,,,,,,,,,
,,,,,ogumus,001,2026-05-11_23h15.17.348,false_memory_experiment,2026.1.3,Win32,165.0165017,,,,,,,,,,,,,,,,,,,145.654,147.853,left,2.186,,0,1,1,10,1,24 + 33 = 60,left,,,,,,,,,,,,,,,,,,,,,,,,,,,,
,,,,,ogumus,001,2026-05-11_23h15.17.348,false_memory_experiment,2026.1.3,Win32,165.0165017,,,,,,,,,,,,,,,,,,,147.854,149.386,left,1.524,,0,2,2,4,1,19 + 33 = 53,left,,,,,,,,,,,,,,,,,,,,,,,,,,,,
,,,,,ogumus,001,2026-05-11_23h15.17.348,false_memory_experiment,2026.1.3,Win32,165.0165017,,,,,,,,,,,,,,,,,,,149.387,150.726,right,1.327,,0,3,3,8,1,50 - 18 = 32,right,,,,,,,,,,,,,,,,,,,,,,,,,,,,
,,,,,ogumus,001,2026-05-11_23h15.17.348,false_memory_experiment,2026.1.3,Win32,165.0165017,,,,,,,,,,,,,,,,,,,150.727,152.302,right,1.564,,0,4,4,19,1,11 + 10 = 21,right,,,,,,,,,,,,,,,,,,,,,,,,,,,,
,,,,,ogumus,001,2026-05-11_23h15.17.348,false_memory_experiment,2026.1.3,Win32,165.0165017,,,,,,,,,,,,,,,,,,,152.302,154.459,left,2.137,,0,5,5,25,1,30 + 44 = 73,left,,,,,,,,,,,,,,,,,,,,,,,,,,,,
,,,,,ogumus,001,2026-05-11_23h15.17.348,false_memory_experiment,2026.1.3,Win32,165.0165017,,,,,,,,,,,,,,,,,,,154.46,157.404,left,2.924,,0,6,6,11,1,39 - 15 = 26,left,,,,,,,,,,,,,,,,,,,,,,,,,,,,
,,,,,ogumus,001,2026-05-11_23h15.17.348,false_memory_experiment,2026.1.3,Win32,165.0165017,,,,,,,,,,,,,,,,,,,157.405,158.005,,,,0,7,7,30,1,11 + 17 = 28,right,,,,,,,,,,,,,,,,,,,,,,,,,,,,
,,,,,ogumus,001,2026-05-11_23h15.17.348,false_memory_experiment,2026.1.3,Win32,165.0165017,,,,,,,,,,,,,6,,,EN,,,,,,,,,,,,,,right,158.006,159.55,space,1.526,,159.553,161.525,left,0,1.963,,0,0,0,1,1,gloves,old,,,,,,,,,,
,,,,,ogumus,001,2026-05-11_23h15.17.348,false_memory_experiment,2026.1.3,Win32,165.0165017,,,,,,,,,,,,,6,,,EN,,,,,,,,,,,,,,left,,,,,,161.526,162.804,right,0,1.273,,0,1,1,4,1,cold,critical_lure,,,,,,,,,,
,,,,,ogumus,001,2026-05-11_23h15.17.348,false_memory_experiment,2026.1.3,Win32,165.0165017,,,,,,,,,,,,,6,,,EN,,,,,,,,,,,,,,left,,,,,,162.805,163.732,left,1,0.921,,0,2,2,2,1,cup,distractor,,,,,,,,,,
,,,,,ogumus,001,2026-05-11_23h15.17.348,false_memory_experiment,2026.1.3,Win32,165.0165017,,,,,,,,,,,,,6,,,EN,,,,,,,,,,,,,,left,,,,,,163.732,164.635,left,1,0.898,,0,3,3,3,1,table,distractor,,,,,,,,,,
,,,,,ogumus,001,2026-05-11_23h15.17.348,false_memory_experiment,2026.1.3,Win32,165.0165017,,,,,,,,,,,,,6,,,EN,,,,,,,,,,,,,,right,,,,,,164.635,165.398,right,1,0.758,,0,4,4,0,1,snow,old,,,,,,,,,,
,,,,,ogumus,001,2026-05-11_23h15.17.348,false_memory_experiment,2026.1.3,Win32,165.0165017,,,,,,,,,,,,,,,,,,,,,,,,,,,,,,,,,,,,,,,,,,,,,,,,,0,2,2,5,1,6,60:72,25:30,,
,,,,,ogumus,001,2026-05-11_23h15.17.348,false_memory_experiment,2026.1.3,Win32,165.0165017,165.399,166.429,space,1.017,,166.437,167.925,0,0,0,0,1,5,sweet,sugar,EN,,,,,,,,,,,,,,,,,,,,,,,,,,,,,,,,,,,,,,,,,,
,,,,,ogumus,001,2026-05-11_23h15.17.348,false_memory_experiment,2026.1.3,Win32,165.0165017,,,,,,167.926,169.429,0,1,1,1,1,5,sweet,candy,EN,,,,,,,,,,,,,,,,,,,,,,,,,,,,,,,,,,,,,,,,,,
,,,,,ogumus,001,2026-05-11_23h15.17.348,false_memory_experiment,2026.1.3,Win32,165.0165017,,,,,,169.429,170.925,0,2,2,2,1,5,sweet,sour,EN,,,,,,,,,,,,,,,,,,,,,,,,,,,,,,,,,,,,,,,,,,
,,,,,ogumus,001,2026-05-11_23h15.17.348,false_memory_experiment,2026.1.3,Win32,165.0165017,,,,,,170.926,172.428,0,3,3,3,1,5,sweet,bitter,EN,,,,,,,,,,,,,,,,,,,,,,,,,,,,,,,,,,,,,,,,,,
,,,,,ogumus,001,2026-05-11_23h15.17.348,false_memory_experiment,2026.1.3,Win32,165.0165017,,,,,,172.429,173.931,0,4,4,4,1,5,sweet,chocolate,EN,,,,,,,,,,,,,,,,,,,,,,,,,,,,,,,,,,,,,,,,,,
,,,,,ogumus,001,2026-05-11_23h15.17.348,false_memory_experiment,2026.1.3,Win32,165.0165017,,,,,,173.932,175.428,0,5,5,5,1,5,sweet,taste,EN,,,,,,,,,,,,,,,,,,,,,,,,,,,,,,,,,,,,,,,,,,
,,,,,ogumus,001,2026-05-11_23h15.17.348,false_memory_experiment,2026.1.3,Win32,165.0165017,,,,,,175.429,176.925,0,6,6,6,1,5,sweet,honey,EN,,,,,,,,,,,,,,,,,,,,,,,,,,,,,,,,,,,,,,,,,,
,,,,,ogumus,001,2026-05-11_23h15.17.348,false_memory_experiment,2026.1.3,Win32,165.0165017,,,,,,176.926,178.428,0,7,7,7,1,5,sweet,cake,EN,,,,,,,,,,,,,,,,,,,,,,,,,,,,,,,,,,,,,,,,,,
,,,,,ogumus,001,2026-05-11_23h15.17.348,false_memory_experiment,2026.1.3,Win32,165.0165017,,,,,,178.429,179.931,0,8,8,8,1,5,sweet,cookie,EN,,,,,,,,,,,,,,,,,,,,,,,,,,,,,,,,,,,,,,,,,,
,,,,,ogumus,001,2026-05-11_23h15.17.348,false_memory_experiment,2026.1.3,Win32,165.0165017,,,,,,179.931,181.427,0,9,9,9,1,5,sweet,dessert,EN,,,,,,,,,,,,,,,,,,,,,,,,,,,,,,,,,,,,,,,,,,
,,,,,ogumus,001,2026-05-11_23h15.17.348,false_memory_experiment,2026.1.3,Win32,165.0165017,,,,,,181.429,182.925,0,10,10,10,1,5,sweet,pie,EN,,,,,,,,,,,,,,,,,,,,,,,,,,,,,,,,,,,,,,,,,,
,,,,,ogumus,001,2026-05-11_23h15.17.348,false_memory_experiment,2026.1.3,Win32,165.0165017,,,,,,182.925,184.428,0,11,11,11,1,5,sweet,waffle,EN,,,,,,,,,,,,,,,,,,,,,,,,,,,,,,,,,,,,,,,,,,
,,,,,ogumus,001,2026-05-11_23h15.17.348,false_memory_experiment,2026.1.3,Win32,165.0165017,,,,,,,,,,,,,,,,,184.428,184.428,184.543,187.173,left,2.61,,0,0,0,26,1,38 - 18 = 19,left,,,,,,,,,,,,,,,,,,,,,,,,,,,,
,,,,,ogumus,001,2026-05-11_23h15.17.348,false_memory_experiment,2026.1.3,Win32,165.0165017,,,,,,,,,,,,,,,,,,,187.174,188.622,left,1.437,,0,1,1,34,1,32 + 41 = 70,left,,,,,,,,,,,,,,,,,,,,,,,,,,,,
,,,,,ogumus,001,2026-05-11_23h15.17.348,false_memory_experiment,2026.1.3,Win32,165.0165017,,,,,,,,,,,,,,,,,,,188.622,191.057,left,2.421,,0,2,2,11,1,39 - 15 = 26,left,,,,,,,,,,,,,,,,,,,,,,,,,,,,
,,,,,ogumus,001,2026-05-11_23h15.17.348,false_memory_experiment,2026.1.3,Win32,165.0165017,,,,,,,,,,,,,,,,,,,191.058,192.228,left,1.151,,0,3,3,0,1,8 + 39 = 46,left,,,,,,,,,,,,,,,,,,,,,,,,,,,,
,,,,,ogumus,001,2026-05-11_23h15.17.348,false_memory_experiment,2026.1.3,Win32,165.0165017,,,,,,,,,,,,,,,,,,,192.228,194.482,left,2.236,,0,4,4,23,1,41 + 19 = 65,left,,,,,,,,,,,,,,,,,,,,,,,,,,,,
,,,,,ogumus,001,2026-05-11_23h15.17.348,false_memory_experiment,2026.1.3,Win32,165.0165017,,,,,,,,,,,,,,,,,,,194.482,196.021,left,1.53,,0,5,5,12,1,25 + 26 = 46,left,,,,,,,,,,,,,,,,,,,,,,,,,,,,
,,,,,ogumus,001,2026-05-11_23h15.17.348,false_memory_experiment,2026.1.3,Win32,165.0165017,,,,,,,,,,,,,,,,,,,196.022,199.434,,,,0,6,6,21,1,44 - 29 = 15,right,,,,,,,,,,,,,,,,,,,,,,,,,,,,
,,,,,ogumus,001,2026-05-11_23h15.17.348,false_memory_experiment,2026.1.3,Win32,165.0165017,,,,,,,,,,,,,5,,,EN,,,,,,,,,,,,,,right,199.434,201.004,space,1.553,,201.011,207.046,left,0,6.025,,0,0,0,1,1,honey,old,,,,,,,,,,
,,,,,ogumus,001,2026-05-11_23h15.17.348,false_memory_experiment,2026.1.3,Win32,165.0165017,,,,,,,,,,,,,5,,,EN,,,,,,,,,,,,,,left,,,,,,207.046,208.137,left,1,1.088,,0,1,1,3,1,phone,distractor,,,,,,,,,,
,,,,,ogumus,001,2026-05-11_23h15.17.348,false_memory_experiment,2026.1.3,Win32,165.0165017,,,,,,,,,,,,,5,,,EN,,,,,,,,,,,,,,right,,,,,,208.137,209.081,right,1,0.94,,0,2,2,0,1,sugar,old,,,,,,,,,,
,,,,,ogumus,001,2026-05-11_23h15.17.348,false_memory_experiment,2026.1.3,Win32,165.0165017,,,,,,,,,,,,,5,,,EN,,,,,,,,,,,,,,left,,,,,,209.082,209.918,left,1,0.831,,0,3,3,2,1,pen,distractor,,,,,,,,,,
,,,,,ogumus,001,2026-05-11_23h15.17.348,false_memory_experiment,2026.1.3,Win32,165.0165017,,,,,,,,,,,,,5,,,EN,,,,,,,,,,,,,,left,,,,,,209.919,211.233,right,0,1.312,,0,4,4,4,1,sweet,critical_lure,,,,,,,,,,
,,,,,ogumus,001,2026-05-11_23h15.17.348,false_memory_experiment,2026.1.3,Win32,165.0165017,,,,,,,,,,,,,,,,,,,,,,,,,,,,,,,,,,,,,,,,,,,,,,,,,0,3,3,4,1,5,48:60,20:25,,
,,,,,ogumus,001,2026-05-11_23h15.17.348,false_memory_experiment,2026.1.3,Win32,165.0165017,211.233,212.003,space,0.758,,212.007,213.5,0,0,0,0,1,1,uyku,yatak,TR,,,,,,,,,,,,,,,,,,,,,,,,,,,,,,,,,,,,,,,,,,
,,,,,ogumus,001,2026-05-11_23h15.17.348,false_memory_experiment,2026.1.3,Win32,165.0165017,,,,,,213.5,215.003,0,1,1,1,1,1,uyku,rüya,TR,,,,,,,,,,,,,,,,,,,,,,,,,,,,,,,,,,,,,,,,,,
,,,,,ogumus,001,2026-05-11_23h15.17.348,false_memory_experiment,2026.1.3,Win32,165.0165017,,,,,,215.004,216.5,0,2,2,2,1,1,uyku,yastık,TR,,,,,,,,,,,,,,,,,,,,,,,,,,,,,,,,,,,,,,,,,,
,,,,,ogumus,001,2026-05-11_23h15.17.348,false_memory_experiment,2026.1.3,Win32,165.0165017,,,,,,216.5,218.003,0,3,3,3,1,1,uyku,gece,TR,,,,,,,,,,,,,,,,,,,,,,,,,,,,,,,,,,,,,,,,,,
,,,,,ogumus,001,2026-05-11_23h15.17.348,false_memory_experiment,2026.1.3,Win32,165.0165017,,,,,,218.003,219.5,0,4,4,4,1,1,uyku,yorgan,TR,,,,,,,,,,,,,,,,,,,,,,,,,,,,,,,,,,,,,,,,,,
,,,,,ogumus,001,2026-05-11_23h15.17.348,false_memory_experiment,2026.1.3,Win32,165.0165017,,,,,,219.5,221.002,0,5,5,5,1,1,uyku,battaniye,TR,,,,,,,,,,,,,,,,,,,,,,,,,,,,,,,,,,,,,,,,,,
,,,,,ogumus,001,2026-05-11_23h15.17.348,false_memory_experiment,2026.1.3,Win32,165.0165017,,,,,,221.003,222.499,0,6,6,6,1,1,uyku,dinlenmek,TR,,,,,,,,,,,,,,,,,,,,,,,,,,,,,,,,,,,,,,,,,,
,,,,,ogumus,001,2026-05-11_23h15.17.348,false_memory_experiment,2026.1.3,Win32,165.0165017,,,,,,222.5,224.002,0,7,7,7,1,1,uyku,horlamak,TR,,,,,,,,,,,,,,,,,,,,,,,,,,,,,,,,,,,,,,,,,,
,,,,,ogumus,001,2026-05-11_23h15.17.348,false_memory_experiment,2026.1.3,Win32,165.0165017,,,,,,224.003,225.499,0,8,8,8,1,1,uyku,pijama,TR,,,,,,,,,,,,,,,,,,,,,,,,,,,,,,,,,,,,,,,,,,
,,,,,ogumus,001,2026-05-11_23h15.17.348,false_memory_experiment,2026.1.3,Win32,165.0165017,,,,,,225.499,227.002,0,9,9,9,1,1,uyku,yorgun,TR,,,,,,,,,,,,,,,,,,,,,,,,,,,,,,,,,,,,,,,,,,
,,,,,ogumus,001,2026-05-11_23h15.17.348,false_memory_experiment,2026.1.3,Win32,165.0165017,,,,,,227.003,228.499,0,10,10,10,1,1,uyku,karanlık,TR,,,,,,,,,,,,,,,,,,,,,,,,,,,,,,,,,,,,,,,,,,
,,,,,ogumus,001,2026-05-11_23h15.17.348,false_memory_experiment,2026.1.3,Win32,165.0165017,,,,,,228.499,230.002,0,11,11,11,1,1,uyku,lamba,TR,,,,,,,,,,,,,,,,,,,,,,,,,,,,,,,,,,,,,,,,,,
,,,,,ogumus,001,2026-05-11_23h15.17.348,false_memory_experiment,2026.1.3,Win32,165.0165017,,,,,,,,,,,,,,,,,230.002,230.002,230.095,232.977,right,2.869,,0,0,0,14,1,24 + 8 = 32,right,,,,,,,,,,,,,,,,,,,,,,,,,,,,
,,,,,ogumus,001,2026-05-11_23h15.17.348,false_memory_experiment,2026.1.3,Win32,165.0165017,,,,,,,,,,,,,,,,,,,232.978,234.123,right,1.132,,0,1,1,39,1,20 + 20 = 40,right,,,,,,,,,,,,,,,,,,,,,,,,,,,,
,,,,,ogumus,001,2026-05-11_23h15.17.348,false_memory_experiment,2026.1.3,Win32,165.0165017,,,,,,,,,,,,,,,,,,,234.124,234.82,right,0.677,,0,2,2,9,1,10 + 7 = 17,right,,,,,,,,,,,,,,,,,,,,,,,,,,,,
,,,,,ogumus,001,2026-05-11_23h15.17.348,false_memory_experiment,2026.1.3,Win32,165.0165017,,,,,,,,,,,,,,,,,,,234.821,235.923,right,1.097,,0,3,3,1,1,13 - 9 = 4,right,,,,,,,,,,,,,,,,,,,,,,,,,,,,
,,,,,ogumus,001,2026-05-11_23h15.17.348,false_memory_experiment,2026.1.3,Win32,165.0165017,,,,,,,,,,,,,,,,,,,235.924,237.542,left,1.596,,0,4,4,36,1,28 + 42 = 69,left,,,,,,,,,,,,,,,,,,,,,,,,,,,,
,,,,,ogumus,001,2026-05-11_23h15.17.348,false_memory_experiment,2026.1.3,Win32,165.0165017,,,,,,,,,,,,,,,,,,,237.542,238.675,right,1.112,,0,5,5,19,1,11 + 10 = 21,right,,,,,,,,,,,,,,,,,,,,,,,,,,,,
,,,,,ogumus,001,2026-05-11_23h15.17.348,false_memory_experiment,2026.1.3,Win32,165.0165017,,,,,,,,,,,,,,,,,,,238.675,239.777,right,1.082,,0,6,6,21,1,44 - 29 = 15,right,,,,,,,,,,,,,,,,,,,,,,,,,,,,
,,,,,ogumus,001,2026-05-11_23h15.17.348,false_memory_experiment,2026.1.3,Win32,165.0165017,,,,,,,,,,,,,,,,,,,239.778,241.377,right,1.591,,0,7,7,18,1,18 + 6 = 24,right,,,,,,,,,,,,,,,,,,,,,,,,,,,,
,,,,,ogumus,001,2026-05-11_23h15.17.348,false_memory_experiment,2026.1.3,Win32,165.0165017,,,,,,,,,,,,,,,,,,,241.379,242.153,left,0.772,,0,8,8,13,1,5 + 6 = 6,left,,,,,,,,,,,,,,,,,,,,,,,,,,,,
,,,,,ogumus,001,2026-05-11_23h15.17.348,false_memory_experiment,2026.1.3,Win32,165.0165017,,,,,,,,,,,,,,,,,,,242.154,243.995,left,1.824,,0,9,9,26,1,38 - 18 = 19,left,,,,,,,,,,,,,,,,,,,,,,,,,,,,
,,,,,ogumus,001,2026-05-11_23h15.17.348,false_memory_experiment,2026.1.3,Win32,165.0165017,,,,,,,,,,,,,,,,,,,243.996,245.008,,,,0,10,10,2,1,46 - 24 = 25,left,,,,,,,,,,,,,,,,,,,,,,,,,,,,
,,,,,ogumus,001,2026-05-11_23h15.17.348,false_memory_experiment,2026.1.3,Win32,165.0165017,,,,,,,,,,,,,1,,,TR,,,,,,,,,,,,,,left,245.008,246.117,space,1.089,,246.121,248.619,left,1,2.491,,0,0,0,3,1,araba,distractor,,,,,,,,,,
,,,,,ogumus,001,2026-05-11_23h15.17.348,false_memory_experiment,2026.1.3,Win32,165.0165017,,,,,,,,,,,,,1,,,TR,,,,,,,,,,,,,,right,,,,,,248.621,249.704,right,1,1.081,,0,1,1,0,1,yatak,old,,,,,,,,,,
,,,,,ogumus,001,2026-05-11_23h15.17.348,false_memory_experiment,2026.1.3,Win32,165.0165017,,,,,,,,,,,,,1,,,TR,,,,,,,,,,,,,,left,,,,,,249.705,250.813,left,1,1.104,,0,2,2,2,1,sandalye,distractor,,,,,,,,,,
,,,,,ogumus,001,2026-05-11_23h15.17.348,false_memory_experiment,2026.1.3,Win32,165.0165017,,,,,,,,,,,,,1,,,TR,,,,,,,,,,,,,,left,,,,,,250.814,252.517,right,0,1.696,,0,3,3,4,1,uyku,critical_lure,,,,,,,,,,
,,,,,ogumus,001,2026-05-11_23h15.17.348,false_memory_experiment,2026.1.3,Win32,165.0165017,,,,,,,,,,,,,1,,,TR,,,,,,,,,,,,,,right,,,,,,252.517,253.523,right,1,1.001,,0,4,4,1,1,lamba,old,,,,,,,,,,
,,,,,ogumus,001,2026-05-11_23h15.17.348,false_memory_experiment,2026.1.3,Win32,165.0165017,,,,,,,,,,,,,,,,,,,,,,,,,,,,,,,,,,,,,,,,,,,,,,,,,0,4,4,0,1,1,0:12,0:5,,
,,,,,ogumus,001,2026-05-11_23h15.17.348,false_memory_experiment,2026.1.3,Win32,165.0165017,253.523,254.504,space,0.964,,254.509,256.001,0,0,0,0,1,3,soğuk,kış,TR,,,,,,,,,,,,,,,,,,,,,,,,,,,,,,,,,,,,,,,,,,
,,,,,ogumus,001,2026-05-11_23h15.17.348,false_memory_experiment,2026.1.3,Win32,165.0165017,,,,,,256.002,257.504,0,1,1,1,1,3,soğuk,buz,TR,,,,,,,,,,,,,,,,,,,,,,,,,,,,,,,,,,,,,,,,,,
,,,,,ogumus,001,2026-05-11_23h15.17.348,false_memory_experiment,2026.1.3,Win32,165.0165017,,,,,,257.505,259.001,0,2,2,2,1,3,soğuk,kar,TR,,,,,,,,,,,,,,,,,,,,,,,,,,,,,,,,,,,,,,,,,,
,,,,,ogumus,001,2026-05-11_23h15.17.348,false_memory_experiment,2026.1.3,Win32,165.0165017,,,,,,259.002,260.505,0,3,3,3,1,3,soğuk,üşümek,TR,,,,,,,,,,,,,,,,,,,,,,,,,,,,,,,,,,,,,,,,,,
,,,,,ogumus,001,2026-05-11_23h15.17.348,false_memory_experiment,2026.1.3,Win32,165.0165017,,,,,,260.505,262.001,0,4,4,4,1,3,soğuk,dondurucu,TR,,,,,,,,,,,,,,,,,,,,,,,,,,,,,,,,,,,,,,,,,,
,,,,,ogumus,001,2026-05-11_23h15.17.348,false_memory_experiment,2026.1.3,Win32,165.0165017,,,,,,262.003,263.504,0,5,5,5,1,3,soğuk,ayaz,TR,,,,,,,,,,,,,,,,,,,,,,,,,,,,,,,,,,,,,,,,,,
,,,,,ogumus,001,2026-05-11_23h15.17.348,false_memory_experiment,2026.1.3,Win32,165.0165017,,,,,,263.505,265.001,0,6,6,6,1,3,soğuk,titremek,TR,,,,,,,,,,,,,,,,,,,,,,,,,,,,,,,,,,,,,,,,,,
,,,,,ogumus,001,2026-05-11_23h15.17.348,false_memory_experiment,2026.1.3,Win32,165.0165017,,,,,,265.001,266.504,0,7,7,7,1,3,soğuk,derece,TR,,,,,,,,,,,,,,,,,,,,,,,,,,,,,,,,,,,,,,,,,,
,,,,,ogumus,001,2026-05-11_23h15.17.348,false_memory_experiment,2026.1.3,Win32,165.0165017,,,,,,266.505,268.001,0,8,8,8,1,3,soğuk,hava,TR,,,,,,,,,,,,,,,,,,,,,,,,,,,,,,,,,,,,,,,,,,
,,,,,ogumus,001,2026-05-11_23h15.17.348,false_memory_experiment,2026.1.3,Win32,165.0165017,,,,,,268.001,269.504,0,9,9,9,1,3,soğuk,rüzgar,TR,,,,,,,,,,,,,,,,,,,,,,,,,,,,,,,,,,,,,,,,,,
,,,,,ogumus,001,2026-05-11_23h15.17.348,false_memory_experiment,2026.1.3,Win32,165.0165017,,,,,,269.504,271,0,10,10,10,1,3,soğuk,mont,TR,,,,,,,,,,,,,,,,,,,,,,,,,,,,,,,,,,,,,,,,,,
,,,,,ogumus,001,2026-05-11_23h15.17.348,false_memory_experiment,2026.1.3,Win32,165.0165017,,,,,,271.001,272.503,0,11,11,11,1,3,soğuk,eldiven,TR,,,,,,,,,,,,,,,,,,,,,,,,,,,,,,,,,,,,,,,,,,
,,,,,ogumus,001,2026-05-11_23h15.17.348,false_memory_experiment,2026.1.3,Win32,165.0165017,,,,,,,,,,,,,,,,,272.504,272.504,272.588,277.146,left,4.539,,0,0,0,0,1,8 + 39 = 46,left,,,,,,,,,,,,,,,,,,,,,,,,,,,,
,,,,,ogumus,001,2026-05-11_23h15.17.348,false_memory_experiment,2026.1.3,Win32,165.0165017,,,,,,,,,,,,,,,,,,,277.147,278.812,right,1.645,,0,1,1,8,1,50 - 18 = 32,right,,,,,,,,,,,,,,,,,,,,,,,,,,,,
,,,,,ogumus,001,2026-05-11_23h15.17.348,false_memory_experiment,2026.1.3,Win32,165.0165017,,,,,,,,,,,,,,,,,,,278.813,281.673,left,2.851,,0,2,2,11,1,39 - 15 = 26,left,,,,,,,,,,,,,,,,,,,,,,,,,,,,
,,,,,ogumus,001,2026-05-11_23h15.17.348,false_memory_experiment,2026.1.3,Win32,165.0165017,,,,,,,,,,,,,,,,,,,281.674,282.74,right,1.043,,0,3,3,19,1,11 + 10 = 21,right,,,,,,,,,,,,,,,,,,,,,,,,,,,,
,,,,,ogumus,001,2026-05-11_23h15.17.348,false_memory_experiment,2026.1.3,Win32,165.0165017,,,,,,,,,,,,,,,,,,,282.74,284.946,right,2.202,,0,4,4,35,1,44 - 7 = 37,right,,,,,,,,,,,,,,,,,,,,,,,,,,,,
,,,,,ogumus,001,2026-05-11_23h15.17.348,false_memory_experiment,2026.1.3,Win32,165.0165017,,,,,,,,,,,,,,,,,,,284.946,287.491,right,2.533,,0,5,5,5,1,17 + 48 = 65,right,,,,,,,,,,,,,,,,,,,,,,,,,,,,
,,,,,ogumus,001,2026-05-11_23h15.17.348,false_memory_experiment,2026.1.3,Win32,165.0165017,,,,,,,,,,,,,,,,,,,287.491,287.504,,,,0,6,6,10,1,24 + 33 = 60,left,,,,,,,,,,,,,,,,,,,,,,,,,,,,
,,,,,ogumus,001,2026-05-11_23h15.17.348,false_memory_experiment,2026.1.3,Win32,165.0165017,,,,,,,,,,,,,3,,,TR,,,,,,,,,,,,,,right,287.505,288.467,space,0.952,,288.472,290.582,left,0,2.098,,0,0,0,1,1,mont,old,,,,,,,,,,
,,,,,ogumus,001,2026-05-11_23h15.17.348,false_memory_experiment,2026.1.3,Win32,165.0165017,,,,,,,,,,,,,3,,,TR,,,,,,,,,,,,,,left,,,,,,290.583,291.994,left,1,1.408,,0,1,1,2,1,bardak,distractor,,,,,,,,,,
,,,,,ogumus,001,2026-05-11_23h15.17.348,false_memory_experiment,2026.1.3,Win32,165.0165017,,,,,,,,,,,,,3,,,TR,,,,,,,,,,,,,,right,,,,,,291.995,292.988,right,1,0.988,,0,2,2,0,1,kış,old,,,,,,,,,,
,,,,,ogumus,001,2026-05-11_23h15.17.348,false_memory_experiment,2026.1.3,Win32,165.0165017,,,,,,,,,,,,,3,,,TR,,,,,,,,,,,,,,left,,,,,,292.99,294.401,left,1,1.408,,0,3,3,3,1,kağıt,distractor,,,,,,,,,,
,,,,,ogumus,001,2026-05-11_23h15.17.348,false_memory_experiment,2026.1.3,Win32,165.0165017,,,,,,,,,,,,,3,,,TR,,,,,,,,,,,,,,left,,,,,,294.401,295.443,right,0,1.035,,0,4,4,4,1,soğuk,critical_lure,,,,,,,,,,
,,,,,ogumus,001,2026-05-11_23h15.17.348,false_memory_experiment,2026.1.3,Win32,165.0165017,,,,,,,,,,,,,,,,,,,,,,,,,,,,,,,,,,,,,,,,,,,,,,,,,0,5,5,2,1,3,24:36,10:15,,
,,,,,ogumus,001,2026-05-11_23h15.17.348,false_memory_experiment,2026.1.3,Win32,165.0165017,,,,,,,,,,,,,,,,,,,,,,,,,,,,,,,,,,,,,,,,,,,,,,,,,,,,,,,,,295.443,298.442
