block_id,study_rows,test_rows,thisN,thisTrialN,thisRepN,list_id,theme,study_word,language,key_resp_start_set.keys,key_resp_start_set.rt,key_resp_start_set.duration,problem,correct_resp,key_resp.keys,key_resp.rt,key_resp.duration,test_word,word_type,key_resp_start_test.keys,key_resp_start_test.rt,key_resp_start_test.duration,key_resp_test.keys,key_resp_test.corr,key_resp_test.rt,key_resp_test.duration,blocks_loop.thisRepN,blocks_loop.thisTrialN,blocks_loop.thisN,blocks_loop.thisIndex,study_loop.thisRepN,study_loop.thisTrialN,study_loop.thisN,study_loop.thisIndex,distractor_loop.thisRepN,distractor_loop.thisTrialN,distractor_loop.thisN,distractor_loop.thisIndex,test_loop.thisRepN,test_loop.thisTrialN,test_loop.thisN,test_loop.thisIndex,thisRow.t,notes,piloting,instructions.started,text_instr.started,key_resp_instr.started,instructions.stopped,key_resp_instr.keys,key_resp_instr.rt,key_resp_instr.duration,start_set.started,text_start_set.started,key_resp_start_set.started,start_set.stopped,blocks_loop.key_resp_start_set.keys,blocks_loop.key_resp_start_set.rt,blocks_loop.key_resp_start_set.duration,study.started,text_study.started,study.stopped,text_study.stopped,timer.started,timer.stopped,distractor.started,text_problem.started,key_resp.started,text_dist_keys.started,distractor.stopped,distractor_loop.key_resp.keys,distractor_loop.key_resp.rt,distractor_loop.key_resp.duration,start_test.started,text_start_test.started,key_resp_start_test.started,start_test.stopped,blocks_loop.key_resp_start_test.keys,blocks_loop.key_resp_start_test.rt,blocks_loop.key_resp_start_test.duration,test.started,text_test.started,key_resp_test.started,text_test_keys.started,test.stopped,test_loop.key_resp_test.keys,test_loop.key_resp_test.corr,test_loop.key_resp_test.rt,test_loop.key_resp_test.duration,end.started,text.started,text.stopped,end.stopped,participant,session,date,expName,expVersion,psychopyVersion,frameRate,expStart,
,,,,,,,,,,,,,,,,,,,,,,,,,,,,,,,,,,,,,,,,,,,,,True,0.06675910000922158,0.07484040001872927,0.07484040001872927,11.849083300039638,space,11.76760550000472,None,,,,,,,,,,,,,,,,,,,,,,,,,,,,,,,,,,,,,,,,,,pilot,001,2026-05-09_22h58.25.245,false_memory_experiment,,2026.1.3,165.0840607711841,2026-05-09 22h58.25.410205 +0300,
5,48:60,20:25,0,0,0,5,sweet,sugar,EN,space,2.2086729999864474,None,,,,,,,,,,,,,,,0,0,0,4,0,0,0,0,,,,,,,,,14.087171300023329,,,,,,,,,,11.852802200010046,11.857442400010768,11.857442400010768,14.070875000033993,space,2.2086729999864474,None,14.080386600049678,14.087171300023329,15.573551000037696,,,,,,,,,,,,,,,,,,,,,,,,,,,,,,,,pilot,001,2026-05-09_22h58.25.245,false_memory_experiment,,2026.1.3,165.0840607711841,2026-05-09 22h58.25.410205 +0300,
5,48:60,20:25,1,1,0,5,sweet,candy,EN,space,2.2086729999864474,None,,,,,,,,,,,,,,,0,0,0,4,0,1,1,1,,,,,,,,,15.578656700032298,,,,,,,,,,,,,,,,,15.574613100034185,15.578656700032298,17.064534700009972,17.069464900007006,,,,,,,,,,,,,,,,,,,,,,,,,,,,,,,pilot,001,2026-05-09_22h58.25.245,false_memory_experiment,,2026.1.3,165.0840607711841,2026-05-09 22h58.25.410205 +0300,
5,48:60,20:25,2,2,0,5,sweet,sour,EN,space,2.2086729999864474,None,,,,,,,,,,,,,,,0,0,0,4,0,2,2,2,,,,,,,,,17.069464900007006,,,,,,,,,,,,,,,,,17.065635000006296,17.069464900007006,18.5555444000056,18.56036620005034,,,,,,,,,,,,,,,,,,,,,,,,,,,,,,,pilot,001,2026-05-09_22h58.25.245,false_memory_experiment,,2026.1.3,165.0840607711841,2026-05-09 22h58.25.410205 +0300,
5,48:60,20:25,3,3,0,5,sweet,bitter,EN,space,2.2086729999864474,None,,,,,,,,,,,,,,,0,0,0,4,0,3,3,3,,,,,,,,,18.56036620005034,,,,,,,,,,,,,,,,,18.557060900027864,18.56036620005034,20.0462344000116,20.051261999993585,,,,,,,,,,,,,,,,,,,,,,,,,,,,,,,pilot,001,2026-05-09_22h58.25.245,false_memory_experiment,,2026.1.3,165.0840607711841,2026-05-09 22h58.25.410205 +0300,
5,48:60,20:25,4,4,0,5,sweet,chocolate,EN,space,2.2086729999864474,None,,,,,,,,,,,,,,,0,0,0,4,0,4,4,4,,,,,,,,,20.051261999993585,,,,,,,,,,,,,,,,,20.04733120003948,20.06334530003369,21.549333800037857,21.554434100049548,,,,,,,,,,,,,,,,,,,,,,,,,,,,,,,pilot,001,2026-05-09_22h58.25.245,false_memory_experiment,,2026.1.3,165.0840607711841,2026-05-09 22h58.25.410205 +0300,
5,48:60,20:25,5,5,0,5,sweet,taste,EN,space,2.2086729999864474,None,,,,,,,,,,,,,,,0,0,0,4,0,5,5,5,,,,,,,,,21.554434100049548,,,,,,,,,,,,,,,,,21.550384400004987,21.560395100037567,23.046239500050433,23.05216780002229,,,,,,,,,,,,,,,,,,,,,,,,,,,,,,,pilot,001,2026-05-09_22h58.25.245,false_memory_experiment,,2026.1.3,165.0840607711841,2026-05-09 22h58.25.410205 +0300,
5,48:60,20:25,6,6,0,5,sweet,honey,EN,space,2.2086729999864474,None,,,,,,,,,,,,,,,0,0,0,4,0,6,6,6,,,,,,,,,23.05216780002229,,,,,,,,,,,,,,,,,23.04721819999395,23.06341080000857,24.54919620003784,24.55435650004074,,,,,,,,,,,,,,,,,,,,,,,,,,,,,,,pilot,001,2026-05-09_22h58.25.245,false_memory_experiment,,2026.1.3,165.0840607711841,2026-05-09 22h58.25.410205 +0300,
5,48:60,20:25,7,7,0,5,sweet,cake,EN,space,2.2086729999864474,None,,,,,,,,,,,,,,,0,0,0,4,0,7,7,7,,,,,,,,,24.55435650004074,,,,,,,,,,,,,,,,,24.550254000001587,24.560244699998293,26.04609730001539,26.051774699997623,,,,,,,,,,,,,,,,,,,,,,,,,,,,,,,pilot,001,2026-05-09_22h58.25.245,false_memory_experiment,,2026.1.3,165.0840607711841,2026-05-09 22h58.25.410205 +0300,
5,48:60,20:25,8,8,0,5,sweet,cookie,EN,space,2.2086729999864474,None,,,,,,,,,,,,,,,0,0,0,4,0,8,8,8,,,,,,,,,26.051774699997623,,,,,,,,,,,,,,,,,26.047106300015002,26.063330200035125,27.55092050001258,27.5541227000067,,,,,,,,,,,,,,,,,,,,,,,,,,,,,,,pilot,001,2026-05-09_22h58.25.245,false_memory_experiment,,2026.1.3,165.0840607711841,2026-05-09 22h58.25.410205 +0300,
5,48:60,20:25,9,9,0,5,sweet,dessert,EN,space,2.2086729999864474,None,,,,,,,,,,,,,,,0,0,0,4,0,9,9,9,,,,,,,,,27.5541227000067,,,,,,,,,,,,,,,,,27.552030900027603,27.56022700003814,29.04609530000016,29.051380900025833,,,,,,,,,,,,,,,,,,,,,,,,,,,,,,,pilot,001,2026-05-09_22h58.25.245,false_memory_experiment,,2026.1.3,165.0840607711841,2026-05-09 22h58.25.410205 +0300,
5,48:60,20:25,10,10,0,5,sweet,pie,EN,space,2.2086729999864474,None,,,,,,,,,,,,,,,0,0,0,4,0,10,10,10,,,,,,,,,29.051380900025833,,,,,,,,,,,,,,,,,29.04702970001381,29.063297800021246,30.549198000051547,30.55420300003607,,,,,,,,,,,,,,,,,,,,,,,,,,,,,,,pilot,001,2026-05-09_22h58.25.245,false_memory_experiment,,2026.1.3,165.0840607711841,2026-05-09 22h58.25.410205 +0300,
5,48:60,20:25,11,11,0,5,sweet,waffle,EN,space,2.2086729999864474,None,,,,,,,,,,,,,,,0,0,0,4,0,11,11,11,,,,,,,,,30.55420300003607,,,,,,,,,,,,,,,,,30.550333800027147,30.560214600001927,32.04603320005117,32.27482360001886,,,,,,,,,,,,,,,,,,,,,,,,,,,,,,,pilot,001,2026-05-09_22h58.25.245,false_memory_experiment,,2026.1.3,165.0840607711841,2026-05-09 22h58.25.410205 +0300,
5,48:60,20:25,0,0,0,,,,,space,2.2086729999864474,None,35 - 26 = 7,left,left,3.343494999979157,None,,,,,,,,,,0,0,0,4,,,,,0,0,0,17,,,,,32.27482360001886,,,,,,,,,,,,,,,,,,,,,32.04718300001696,32.04721900000004,32.269816100015305,32.27482360001886,32.27482360001886,32.27482360001886,35.62212010001531,left,3.343494999979157,None,,,,,,,,,,,,,,,,,,,,,pilot,001,2026-05-09_22h58.25.245,false_memory_experiment,,2026.1.3,165.0840607711841,2026-05-09 22h58.25.410205 +0300,
5,48:60,20:25,1,1,0,,,,,space,2.2086729999864474,None,30 + 44 = 73,left,left,2.2905341999721713,None,,,,,,,,,,0,0,0,4,,,,,0,1,1,25,,,,,35.631901500048116,,,,,,,,,,,,,,,,,,,,,,,35.62484320002841,35.631901500048116,35.631901500048116,35.631901500048116,37.925740500038955,left,2.2905341999721713,None,,,,,,,,,,,,,,,,,,,,,pilot,001,2026-05-09_22h58.25.245,false_memory_experiment,,2026.1.3,165.0840607711841,2026-05-09 22h58.25.410205 +0300,
5,48:60,20:25,2,2,0,,,,,space,2.2086729999864474,None,50 - 18 = 32,right,right,1.443228799966164,None,,,,,,,,,,0,0,0,4,,,,,0,2,2,8,,,,,37.93485670001246,,,,,,,,,,,,,,,,,,,,,,,37.92771660001017,37.93485670001246,37.93485670001246,37.93485670001246,39.3793611000292,right,1.443228799966164,None,,,,,,,,,,,,,,,,,,,,,pilot,001,2026-05-09_22h58.25.245,false_memory_experiment,,2026.1.3,165.0840607711841,2026-05-09 22h58.25.410205 +0300,
5,48:60,20:25,3,3,0,,,,,space,2.2086729999864474,None,44 - 29 = 15,right,right,1.6288247000193223,None,,,,,,,,,,0,0,0,4,,,,,0,3,3,21,,,,,39.38951130001806,,,,,,,,,,,,,,,,,,,,,,,39.38202860002639,39.38951130001806,39.38951130001806,39.38951130001806,41.02175030001672,right,1.6288247000193223,None,,,,,,,,,,,,,,,,,,,,,pilot,001,2026-05-09_22h58.25.245,false_memory_experiment,,2026.1.3,165.0840607711841,2026-05-09 22h58.25.410205 +0300,
5,48:60,20:25,4,4,0,,,,,space,2.2086729999864474,None,50 + 45 = 94,left,left,1.5351030999445356,None,,,,,,,,,,0,0,0,4,,,,,0,4,4,6,,,,,41.02698150003562,,,,,,,,,,,,,,,,,,,,,,,41.023250000027474,41.02698150003562,41.02698150003562,41.02698150003562,42.567550000036135,left,1.5351030999445356,None,,,,,,,,,,,,,,,,,,,,,pilot,001,2026-05-09_22h58.25.245,false_memory_experiment,,2026.1.3,165.0840607711841,2026-05-09 22h58.25.410205 +0300,
5,48:60,20:25,5,5,0,,,,,space,2.2086729999864474,None,13 + 14 = 26,left,left,1.3264261000440456,None,,,,,,,,,,0,0,0,4,,,,,0,5,5,29,,,,,42.572137400042266,,,,,,,,,,,,,,,,,,,,,,,42.568860100000165,42.572137400042266,42.572137400042266,42.572137400042266,43.90056900004856,left,1.3264261000440456,None,,,,,,,,,,,,,,,,,,,,,pilot,001,2026-05-09_22h58.25.245,false_memory_experiment,,2026.1.3,165.0840607711841,2026-05-09 22h58.25.410205 +0300,
5,48:60,20:25,6,6,0,,,,,space,2.2086729999864474,None,19 + 33 = 53,left,left,1.4646846000105143,None,,,,,,,,,,0,0,0,4,,,,,0,6,6,4,,,,,43.905543600034434,,,,,,,,,,,,,,,,,,,,,,,43.901872600021306,43.905543600034434,43.905543600034434,43.905543600034434,45.3732285000151,left,1.4646846000105143,None,,,,,,,,,,,,,,,,,,,,,pilot,001,2026-05-09_22h58.25.245,false_memory_experiment,,2026.1.3,165.0840607711841,2026-05-09 22h58.25.410205 +0300,
5,48:60,20:25,7,7,0,,,,,space,2.2086729999864474,None,39 - 15 = 26,left,None,,,,,,,,,,,,0,0,0,4,,,,,0,7,7,11,,,,,45.37815520004369,,,,,,,,,,,,,,,,,,,,,,,45.37467140000081,45.37815520004369,45.37815520004369,45.37815520004369,47.05466110003181,None,,,,,,,,,,,,,,,,,,,,,,,pilot,001,2026-05-09_22h58.25.245,false_memory_experiment,,2026.1.3,165.0840607711841,2026-05-09 22h58.25.410205 +0300,
5,48:60,20:25,0,0,0,5,,,EN,space,2.2086729999864474,None,,left,,,,pen,distractor,space,1.812070100044366,None,left,1,3.5394710999680683,None,0,0,0,4,,,,,,,,,0,0,0,2,48.886622600024566,,,,,,,,,,,,,,,,,,,,,,,,,,,,,,,47.05590540001867,47.062285000050906,47.062285000050906,48.87621509999735,space,1.812070100044366,None,48.88313020003261,48.886622600024566,48.886622600024566,48.886622600024566,52.42760440002894,left,1,3.5394710999680683,None,,,,,pilot,001,2026-05-09_22h58.25.245,false_memory_experiment,,2026.1.3,165.0840607711841,2026-05-09 22h58.25.410205 +0300,
5,48:60,20:25,1,1,0,5,,,EN,space,2.2086729999864474,None,,left,,,,sweet,critical_lure,space,1.812070100044366,None,right,0,4.065644400019664,None,0,0,0,4,,,,,,,,,0,1,1,4,52.432630600000266,,,,,,,,,,,,,,,,,,,,,,,,,,,,,,,,,,,,,,52.428657400014345,52.432630600000266,52.432630600000266,52.432630600000266,56.501078000001144,right,0,4.065644400019664,None,,,,,pilot,001,2026-05-09_22h58.25.245,false_memory_experiment,,2026.1.3,165.0840607711841,2026-05-09 22h58.25.410205 +0300,
5,48:60,20:25,2,2,0,5,,,EN,space,2.2086729999864474,None,,left,,,,phone,distractor,space,1.812070100044366,None,left,1,3.153169199998956,None,0,0,0,4,,,,,,,,,0,2,2,3,56.50531190005131,,,,,,,,,,,,,,,,,,,,,,,,,,,,,,,,,,,,,,56.502186900004745,56.50531190005131,56.50531190005131,56.50531190005131,59.663881900021806,left,1,3.153169199998956,None,,,,,pilot,001,2026-05-09_22h58.25.245,false_memory_experiment,,2026.1.3,165.0840607711841,2026-05-09 22h58.25.410205 +0300,
5,48:60,20:25,3,3,0,5,,,EN,space,2.2086729999864474,None,,right,,,,sugar,old,space,1.812070100044366,None,right,1,1.2133681999985129,None,0,0,0,4,,,,,,,,,0,3,3,0,59.66875120002078,,,,,,,,,,,,,,,,,,,,,,,,,,,,,,,,,,,,,,59.66493290005019,59.66875120002078,59.66875120002078,59.66875120002078,60.888042100006714,right,1,1.2133681999985129,None,,,,,pilot,001,2026-05-09_22h58.25.245,false_memory_experiment,,2026.1.3,165.0840607711841,2026-05-09 22h58.25.410205 +0300,
5,48:60,20:25,4,4,0,5,,,EN,space,2.2086729999864474,None,,right,,,,honey,old,space,1.812070100044366,None,right,1,4.173148999980185,None,0,0,0,4,,,,,,,,,0,4,4,1,60.89315210003406,,,,,,,,,,,,,,,,,,,,,,,,,,,,,,,,,,,,,,60.88909040001454,60.89315210003406,60.89315210003406,60.89315210003406,65.06994800001848,right,1,4.173148999980185,None,,,,,pilot,001,2026-05-09_22h58.25.245,false_memory_experiment,,2026.1.3,165.0840607711841,2026-05-09 22h58.25.410205 +0300,
5,48:60,20:25,0,0,0,,,,,space,2.2086729999864474,None,,,,,,,,space,1.812070100044366,None,,,,,0,0,0,4,,,,,,,,,,,,,,,,,,,,,,,,,,,,,,,,,,,,,,,,,,,,,,,,,,,,,,,,,,,,,,,,pilot,001,2026-05-09_22h58.25.245,false_memory_experiment,,2026.1.3,165.0840607711841,2026-05-09 22h58.25.410205 +0300,
6,60:72,25:30,0,0,0,6,cold,snow,EN,space,1.1820640999940224,None,,,,,,,,,,,,,,,0,1,1,5,0,0,0,0,,,,,,,,,66.27412300003925,,,,,,,,,,65.07099640002707,65.07615530001931,65.07615530001931,66.25864920002641,space,1.1820640999940224,None,66.26826500002062,66.27412300003925,67.76063540001633,,,,,,,,,,,,,,,,,,,,,,,,,,,,,,,,pilot,001,2026-05-09_22h58.25.245,false_memory_experiment,,2026.1.3,165.0840607711841,2026-05-09 22h58.25.410205 +0300,
6,60:72,25:30,1,1,0,6,cold,ice,EN,space,1.1820640999940224,None,,,,,,,,,,,,,,,0,1,1,5,0,1,1,1,,,,,,,,,67.76571230002446,,,,,,,,,,,,,,,,,67.76152699999511,67.76571230002446,69.25146330002462,69.25663080002414,,,,,,,,,,,,,,,,,,,,,,,,,,,,,,,pilot,001,2026-05-09_22h58.25.245,false_memory_experiment,,2026.1.3,165.0840607711841,2026-05-09 22h58.25.410205 +0300,
6,60:72,25:30,2,2,0,6,cold,winter,EN,space,1.1820640999940224,None,,,,,,,,,,,,,,,0,1,1,5,0,2,2,2,,,,,,,,,69.25663080002414,,,,,,,,,,,,,,,,,69.25247200002195,69.25663080002414,70.74249890004285,70.74740660004318,,,,,,,,,,,,,,,,,,,,,,,,,,,,,,,pilot,001,2026-05-09_22h58.25.245,false_memory_experiment,,2026.1.3,165.0840607711841,2026-05-09 22h58.25.410205 +0300,
6,60:72,25:30,3,3,0,6,cold,storm,EN,space,1.1820640999940224,None,,,,,,,,,,,,,,,0,1,1,5,0,3,3,3,,,,,,,,,70.74740660004318,,,,,,,,,,,,,,,,,70.74351450003451,70.74740660004318,72.23506740003359,72.24352070002351,,,,,,,,,,,,,,,,,,,,,,,,,,,,,,,pilot,001,2026-05-09_22h58.25.245,false_memory_experiment,,2026.1.3,165.0840607711841,2026-05-09 22h58.25.410205 +0300,
6,60:72,25:30,4,4,0,6,cold,shiver,EN,space,1.1820640999940224,None,,,,,,,,,,,,,,,0,1,1,5,0,4,4,4,,,,,,,,,72.24352070002351,,,,,,,,,,,,,,,,,72.23702400003094,72.25047660002019,73.73644260002766,73.74125110002933,,,,,,,,,,,,,,,,,,,,,,,,,,,,,,,pilot,001,2026-05-09_22h58.25.245,false_memory_experiment,,2026.1.3,165.0840607711841,2026-05-09 22h58.25.410205 +0300,
6,60:72,25:30,5,5,0,6,cold,arctic,EN,space,1.1820640999940224,None,,,,,,,,,,,,,,,0,1,1,5,0,5,5,5,,,,,,,,,73.74125110002933,,,,,,,,,,,,,,,,,73.73749030003091,73.74732040002709,75.23399110004539,75.23827279999387,,,,,,,,,,,,,,,,,,,,,,,,,,,,,,,pilot,001,2026-05-09_22h58.25.245,false_memory_experiment,,2026.1.3,165.0840607711841,2026-05-09 22h58.25.410205 +0300,
6,60:72,25:30,6,6,0,6,cold,weather,EN,space,1.1820640999940224,None,,,,,,,,,,,,,,,0,1,1,5,0,6,6,6,,,,,,,,,75.23827279999387,,,,,,,,,,,,,,,,,75.23506130004534,75.25044940004591,76.73640720004914,76.74092710000696,,,,,,,,,,,,,,,,,,,,,,,,,,,,,,,pilot,001,2026-05-09_22h58.25.245,false_memory_experiment,,2026.1.3,165.0840607711841,2026-05-09 22h58.25.410205 +0300,
6,60:72,25:30,7,7,0,6,cold,freeze,EN,space,1.1820640999940224,None,,,,,,,,,,,,,,,0,1,1,5,0,7,7,7,,,,,,,,,76.74092710000696,,,,,,,,,,,,,,,,,76.73810600000434,76.75367380003445,78.23929580004187,78.24427160003688,,,,,,,,,,,,,,,,,,,,,,,,,,,,,,,pilot,001,2026-05-09_22h58.25.245,false_memory_experiment,,2026.1.3,165.0840607711841,2026-05-09 22h58.25.410205 +0300,
6,60:72,25:30,8,8,0,6,cold,chill,EN,space,1.1820640999940224,None,,,,,,,,,,,,,,,0,1,1,5,0,8,8,8,,,,,,,,,78.24427160003688,,,,,,,,,,,,,,,,,78.24044180003693,78.2512732000323,79.73616130003938,79.74114420003025,,,,,,,,,,,,,,,,,,,,,,,,,,,,,,,pilot,001,2026-05-09_22h58.25.245,false_memory_experiment,,2026.1.3,165.0840607711841,2026-05-09 22h58.25.410205 +0300,
6,60:72,25:30,9,9,0,6,cold,frost,EN,space,1.1820640999940224,None,,,,,,,,,,,,,,,0,1,1,5,0,9,9,9,,,,,,,,,79.74114420003025,,,,,,,,,,,,,,,,,79.7371695000329,79.74720720003825,81.23311900004046,81.23814890003996,,,,,,,,,,,,,,,,,,,,,,,,,,,,,,,pilot,001,2026-05-09_22h58.25.245,false_memory_experiment,,2026.1.3,165.0840607711841,2026-05-09 22h58.25.410205 +0300,
6,60:72,25:30,10,10,0,6,cold,coat,EN,space,1.1820640999940224,None,,,,,,,,,,,,,,,0,1,1,5,0,10,10,10,,,,,,,,,81.23814890003996,,,,,,,,,,,,,,,,,81.23404930002289,81.25035490002483,82.73608040000545,82.74108659999911,,,,,,,,,,,,,,,,,,,,,,,,,,,,,,,pilot,001,2026-05-09_22h58.25.245,false_memory_experiment,,2026.1.3,165.0840607711841,2026-05-09 22h58.25.410205 +0300,
6,60:72,25:30,11,11,0,6,cold,gloves,EN,space,1.1820640999940224,None,,,,,,,,,,,,,,,0,1,1,5,0,11,11,11,,,,,,,,,82.74108659999911,,,,,,,,,,,,,,,,,82.73707630002173,82.74768590001622,84.23330790002365,84.46191760001238,,,,,,,,,,,,,,,,,,,,,,,,,,,,,,,pilot,001,2026-05-09_22h58.25.245,false_memory_experiment,,2026.1.3,165.0840607711841,2026-05-09 22h58.25.410205 +0300,
6,60:72,25:30,0,0,0,,,,,space,1.1820640999940224,None,44 - 29 = 15,right,right,2.356588499969803,None,,,,,,,,,,0,1,1,5,,,,,0,0,0,21,,,,,84.46191760001238,,,,,,,,,,,,,,,,,,,,,84.23446200002218,84.23449530004291,84.45389520004392,84.46191760001238,84.46191760001238,84.46191760001238,86.82186890003504,right,2.356588499969803,None,,,,,,,,,,,,,,,,,,,,,pilot,001,2026-05-09_22h58.25.245,false_memory_experiment,,2026.1.3,165.0840607711841,2026-05-09 22h58.25.410205 +0300,
6,60:72,25:30,1,1,0,,,,,space,1.1820640999940224,None,38 - 18 = 19,left,right,0.5016033999854699,None,,,,,,,,,,0,1,1,5,,,,,0,1,1,26,,,,,86.82850330002839,,,,,,,,,,,,,,,,,,,,,,,86.82318290002877,86.82850330002839,86.82850330002839,86.82850330002839,87.3303974000155,right,0.5016033999854699,None,,,,,,,,,,,,,,,,,,,,,pilot,001,2026-05-09_22h58.25.245,false_memory_experiment,,2026.1.3,165.0840607711841,2026-05-09 22h58.25.410205 +0300,
6,60:72,25:30,2,2,0,,,,,space,1.1820640999940224,None,13 + 14 = 26,left,left,1.547144699958153,None,,,,,,,,,,0,1,1,5,,,,,0,2,2,29,,,,,87.3350933000329,,,,,,,,,,,,,,,,,,,,,,,87.33172440005,87.3350933000329,87.3350933000329,87.3350933000329,88.88866520003648,left,1.547144699958153,None,,,,,,,,,,,,,,,,,,,,,pilot,001,2026-05-09_22h58.25.245,false_memory_experiment,,2026.1.3,165.0840607711841,2026-05-09 22h58.25.410205 +0300,
6,60:72,25:30,3,3,0,,,,,space,1.1820640999940224,None,17 + 48 = 65,right,right,1.8218594000209123,None,,,,,,,,,,0,1,1,5,,,,,0,3,3,5,,,,,88.89251350000268,,,,,,,,,,,,,,,,,,,,,,,88.88999070000136,88.89251350000268,88.89251350000268,88.89251350000268,90.71788549999474,right,1.8218594000209123,None,,,,,,,,,,,,,,,,,,,,,pilot,001,2026-05-09_22h58.25.245,false_memory_experiment,,2026.1.3,165.0840607711841,2026-05-09 22h58.25.410205 +0300,
6,60:72,25:30,4,4,0,,,,,space,1.1820640999940224,None,50 - 18 = 32,right,right,1.18326950003393,None,,,,,,,,,,0,1,1,5,,,,,0,4,4,8,,,,,90.72283030004473,,,,,,,,,,,,,,,,,,,,,,,90.71921120001934,90.72283030004473,90.72283030004473,90.72283030004473,91.90723120002076,right,1.18326950003393,None,,,,,,,,,,,,,,,,,,,,,pilot,001,2026-05-09_22h58.25.245,false_memory_experiment,,2026.1.3,165.0840607711841,2026-05-09 22h58.25.410205 +0300,
6,60:72,25:30,5,5,0,,,,,space,1.1820640999940224,None,11 + 17 = 28,right,right,1.6060591000132263,None,,,,,,,,,,0,1,1,5,,,,,0,5,5,30,,,,,91.91611190000549,,,,,,,,,,,,,,,,,,,,,,,91.90864949999377,91.91611190000549,91.91611190000549,91.91611190000549,93.52389310003491,right,1.6060591000132263,None,,,,,,,,,,,,,,,,,,,,,pilot,001,2026-05-09_22h58.25.245,false_memory_experiment,,2026.1.3,165.0840607711841,2026-05-09 22h58.25.410205 +0300,
6,60:72,25:30,6,6,0,,,,,space,1.1820640999940224,None,46 - 24 = 25,left,left,1.0812102000345476,None,,,,,,,,,,0,1,1,5,,,,,0,6,6,2,,,,,93.5289282000158,,,,,,,,,,,,,,,,,,,,,,,93.52532300003804,93.5289282000158,93.5289282000158,93.5289282000158,94.61488940002164,left,1.0812102000345476,None,,,,,,,,,,,,,,,,,,,,,pilot,001,2026-05-09_22h58.25.245,false_memory_experiment,,2026.1.3,165.0840607711841,2026-05-09 22h58.25.410205 +0300,
6,60:72,25:30,7,7,0,,,,,space,1.1820640999940224,None,20 + 20 = 40,right,right,1.1665324000059627,None,,,,,,,,,,0,1,1,5,,,,,0,7,7,39,,,,,94.61972700001206,,,,,,,,,,,,,,,,,,,,,,,94.6164204000379,94.61972700001206,94.61972700001206,94.61972700001206,95.7905872000265,right,1.1665324000059627,None,,,,,,,,,,,,,,,,,,,,,pilot,001,2026-05-09_22h58.25.245,false_memory_experiment,,2026.1.3,165.0840607711841,2026-05-09 22h58.25.410205 +0300,
6,60:72,25:30,8,8,0,,,,,space,1.1820640999940224,None,11 + 10 = 21,right,left,0.8787155000027269,None,,,,,,,,,,0,1,1,5,,,,,0,8,8,19,,,,,95.79549460002454,,,,,,,,,,,,,,,,,,,,,,,95.79195179999806,95.79549460002454,95.79549460002454,95.79549460002454,96.67554349999409,left,0.8787155000027269,None,,,,,,,,,,,,,,,,,,,,,pilot,001,2026-05-09_22h58.25.245,false_memory_experiment,,2026.1.3,165.0840607711841,2026-05-09 22h58.25.410205 +0300,
6,60:72,25:30,9,9,0,,,,,space,1.1820640999940224,None,35 - 26 = 7,left,left,1.0897334999754094,None,,,,,,,,,,0,1,1,5,,,,,0,9,9,17,,,,,96.68048320000526,,,,,,,,,,,,,,,,,,,,,,,96.67721970001003,96.68048320000526,96.68048320000526,96.68048320000526,97.77247379999608,left,1.0897334999754094,None,,,,,,,,,,,,,,,,,,,,,pilot,001,2026-05-09_22h58.25.245,false_memory_experiment,,2026.1.3,165.0840607711841,2026-05-09 22h58.25.410205 +0300,
6,60:72,25:30,10,10,0,,,,,space,1.1820640999940224,None,19 - 15 = 3,left,left,0.9847722999984398,None,,,,,,,,,,0,1,1,5,,,,,0,10,10,7,,,,,97.7773453000118,,,,,,,,,,,,,,,,,,,,,,,97.77392000000691,97.7773453000118,97.7773453000118,97.7773453000118,98.76687280001352,left,0.9847722999984398,None,,,,,,,,,,,,,,,,,,,,,pilot,001,2026-05-09_22h58.25.245,false_memory_experiment,,2026.1.3,165.0840607711841,2026-05-09 22h58.25.410205 +0300,
6,60:72,25:30,11,11,0,,,,,space,1.1820640999940224,None,18 + 6 = 24,right,None,,,,,,,,,,,,0,1,1,5,,,,,0,11,11,18,,,,,98.7711827000021,,,,,,,,,,,,,,,,,,,,,,,98.7682987000444,98.7711827000021,98.7711827000021,98.7711827000021,99.24182110000402,None,,,,,,,,,,,,,,,,,,,,,,,pilot,001,2026-05-09_22h58.25.245,false_memory_experiment,,2026.1.3,165.0840607711841,2026-05-09 22h58.25.410205 +0300,
6,60:72,25:30,0,0,0,6,,,EN,space,1.1820640999940224,None,,right,,,,snow,old,space,5.840841500030365,None,right,1,4.121989199949894,None,0,1,1,5,,,,,,,,,0,0,0,0,105.1041728000273,,,,,,,,,,,,,,,,,,,,,,,,,,,,,,,99.24313350004377,99.24932510004146,99.24932510004146,105.09334600000875,space,5.840841500030365,None,105.10014330002014,105.1041728000273,105.1041728000273,105.1041728000273,109.22664619999705,right,1,4.121989199949894,None,,,,,pilot,001,2026-05-09_22h58.25.245,false_memory_experiment,,2026.1.3,165.0840607711841,2026-05-09 22h58.25.410205 +0300,
6,60:72,25:30,1,1,0,6,,,EN,space,1.1820640999940224,None,,left,,,,table,distractor,space,5.840841500030365,None,left,1,1.4745628000237048,None,0,1,1,5,,,,,,,,,0,1,1,3,109.23164380004164,,,,,,,,,,,,,,,,,,,,,,,,,,,,,,,,,,,,,,109.22768760001054,109.23164380004164,109.23164380004164,109.23164380004164,110.7114961000043,left,1,1.4745628000237048,None,,,,,pilot,001,2026-05-09_22h58.25.245,false_memory_experiment,,2026.1.3,165.0840607711841,2026-05-09 22h58.25.410205 +0300,
6,60:72,25:30,2,2,0,6,,,EN,space,1.1820640999940224,None,,left,,,,cold,critical_lure,space,5.840841500030365,None,right,0,1.0856639999547042,None,0,1,1,5,,,,,,,,,0,2,2,4,110.71640850004042,,,,,,,,,,,,,,,,,,,,,,,,,,,,,,,,,,,,,,110.7125398000353,110.71640850004042,110.71640850004042,110.71640850004042,111.80267460003961,right,0,1.0856639999547042,None,,,,,pilot,001,2026-05-09_22h58.25.245,false_memory_experiment,,2026.1.3,165.0840607711841,2026-05-09 22h58.25.410205 +0300,
6,60:72,25:30,3,3,0,6,,,EN,space,1.1820640999940224,None,,right,,,,gloves,old,space,5.840841500030365,None,left,0,1.2349319000495598,None,0,1,1,5,,,,,,,,,0,3,3,1,111.80747510003857,,,,,,,,,,,,,,,,,,,,,,,,,,,,,,,,,,,,,,111.8038684000494,111.80747510003857,111.80747510003857,111.80747510003857,113.04567820002558,left,0,1.2349319000495598,None,,,,,pilot,001,2026-05-09_22h58.25.245,false_memory_experiment,,2026.1.3,165.0840607711841,2026-05-09 22h58.25.410205 +0300,
6,60:72,25:30,4,4,0,6,,,EN,space,1.1820640999940224,None,,left,,,,cup,distractor,space,5.840841500030365,None,left,1,1.3605739999911748,None,0,1,1,5,,,,,,,,,0,4,4,2,113.04971920000389,,,,,,,,,,,,,,,,,,,,,,,,,,,,,,,,,,,,,,113.04663820000133,113.04971920000389,113.04971920000389,113.04971920000389,114.41466040001251,left,1,1.3605739999911748,None,,,,,pilot,001,2026-05-09_22h58.25.245,false_memory_experiment,,2026.1.3,165.0840607711841,2026-05-09 22h58.25.410205 +0300,
6,60:72,25:30,1,1,0,,,,,space,1.1820640999940224,None,,,,,,,,space,5.840841500030365,None,,,,,0,1,1,5,,,,,,,,,,,,,,,,,,,,,,,,,,,,,,,,,,,,,,,,,,,,,,,,,,,,,,,,,,,,,,,,pilot,001,2026-05-09_22h58.25.245,false_memory_experiment,,2026.1.3,165.0840607711841,2026-05-09 22h58.25.410205 +0300,
1,0:12,0:5,0,0,0,1,uyku,yatak,TR,space,0.9023555000312626,None,,,,,,,,,,,,,,,0,2,2,0,0,0,0,0,,,,,,,,,115.34001520002494,,,,,,,,,,114.41560920001939,114.4197567999945,114.4197567999945,115.32341830001678,space,0.9023555000312626,None,115.33256540005095,115.34001520002494,116.82643240003381,,,,,,,,,,,,,,,,,,,,,,,,,,,,,,,,pilot,001,2026-05-09_22h58.25.245,false_memory_experiment,,2026.1.3,165.0840607711841,2026-05-09 22h58.25.410205 +0300,
1,0:12,0:5,1,1,0,1,uyku,rüya,TR,space,0.9023555000312626,None,,,,,,,,,,,,,,,0,2,2,0,0,1,1,1,,,,,,,,,116.83125129999826,,,,,,,,,,,,,,,,,116.82847440004116,116.83125129999826,118.31792640005006,118.32204240001738,,,,,,,,,,,,,,,,,,,,,,,,,,,,,,,pilot,001,2026-05-09_22h58.25.245,false_memory_experiment,,2026.1.3,165.0840607711841,2026-05-09 22h58.25.410205 +0300,
1,0:12,0:5,2,2,0,1,uyku,yastık,TR,space,0.9023555000312626,None,,,,,,,,,,,,,,,0,2,2,0,0,2,2,2,,,,,,,,,118.32204240001738,,,,,,,,,,,,,,,,,118.31986040004995,118.32204240001738,119.80819070001598,119.81330400001025,,,,,,,,,,,,,,,,,,,,,,,,,,,,,,,pilot,001,2026-05-09_22h58.25.245,false_memory_experiment,,2026.1.3,165.0840607711841,2026-05-09 22h58.25.410205 +0300,
1,0:12,0:5,3,3,0,1,uyku,gece,TR,space,0.9023555000312626,None,,,,,,,,,,,,,,,0,2,2,0,0,3,3,3,,,,,,,,,119.81330400001025,,,,,,,,,,,,,,,,,119.80911670002388,119.81330400001025,121.29958330001682,121.30414490000112,,,,,,,,,,,,,,,,,,,,,,,,,,,,,,,pilot,001,2026-05-09_22h58.25.245,false_memory_experiment,,2026.1.3,165.0840607711841,2026-05-09 22h58.25.410205 +0300,
1,0:12,0:5,4,4,0,1,uyku,yorgan,TR,space,0.9023555000312626,None,,,,,,,,,,,,,,,0,2,2,0,0,4,4,4,,,,,,,,,121.30414490000112,,,,,,,,,,,,,,,,,121.30063500005053,121.31621469999664,122.8020586000057,122.80707490001805,,,,,,,,,,,,,,,,,,,,,,,,,,,,,,,pilot,001,2026-05-09_22h58.25.245,false_memory_experiment,,2026.1.3,165.0840607711841,2026-05-09 22h58.25.410205 +0300,
1,0:12,0:5,5,5,0,1,uyku,battaniye,TR,space,0.9023555000312626,None,,,,,,,,,,,,,,,0,2,2,0,0,5,5,5,,,,,,,,,122.80707490001805,,,,,,,,,,,,,,,,,122.80320110003231,122.81519829999888,124.29932270001154,124.30409039999358,,,,,,,,,,,,,,,,,,,,,,,,,,,,,,,pilot,001,2026-05-09_22h58.25.245,false_memory_experiment,,2026.1.3,165.0840607711841,2026-05-09 22h58.25.410205 +0300,
1,0:12,0:5,6,6,0,1,uyku,dinlenmek,TR,space,0.9023555000312626,None,,,,,,,,,,,,,,,0,2,2,0,0,6,6,6,,,,,,,,,124.30409039999358,,,,,,,,,,,,,,,,,124.3004087000154,124.31617350003216,125.80196200002683,125.807055900048,,,,,,,,,,,,,,,,,,,,,,,,,,,,,,,pilot,001,2026-05-09_22h58.25.245,false_memory_experiment,,2026.1.3,165.0840607711841,2026-05-09 22h58.25.410205 +0300,
1,0:12,0:5,7,7,0,1,uyku,horlamak,TR,space,0.9023555000312626,None,,,,,,,,,,,,,,,0,2,2,0,0,7,7,7,,,,,,,,,125.807055900048,,,,,,,,,,,,,,,,,125.80308680003509,125.81428220000817,127.29899770003976,127.30380560003687,,,,,,,,,,,,,,,,,,,,,,,,,,,,,,,pilot,001,2026-05-09_22h58.25.245,false_memory_experiment,,2026.1.3,165.0840607711841,2026-05-09 22h58.25.410205 +0300,
1,0:12,0:5,8,8,0,1,uyku,pijama,TR,space,0.9023555000312626,None,,,,,,,,,,,,,,,0,2,2,0,0,8,8,8,,,,,,,,,127.30380560003687,,,,,,,,,,,,,,,,,127.3010123000131,127.31648189999396,128.80197540001245,128.8069428000017,,,,,,,,,,,,,,,,,,,,,,,,,,,,,,,pilot,001,2026-05-09_22h58.25.245,false_memory_experiment,,2026.1.3,165.0840607711841,2026-05-09 22h58.25.410205 +0300,
1,0:12,0:5,9,9,0,1,uyku,yorgun,TR,space,0.9023555000312626,None,,,,,,,,,,,,,,,0,2,2,0,0,9,9,9,,,,,,,,,128.8069428000017,,,,,,,,,,,,,,,,,128.80311150004854,128.81365180003922,130.29894240002614,130.30394490004983,,,,,,,,,,,,,,,,,,,,,,,,,,,,,,,pilot,001,2026-05-09_22h58.25.245,false_memory_experiment,,2026.1.3,165.0840607711841,2026-05-09 22h58.25.410205 +0300,
1,0:12,0:5,10,10,0,1,uyku,karanlık,TR,space,0.9023555000312626,None,,,,,,,,,,,,,,,0,2,2,0,0,10,10,10,,,,,,,,,130.30394490004983,,,,,,,,,,,,,,,,,130.3000006999937,130.31620980001753,131.80187960003968,131.80686230002902,,,,,,,,,,,,,,,,,,,,,,,,,,,,,,,pilot,001,2026-05-09_22h58.25.245,false_memory_experiment,,2026.1.3,165.0840607711841,2026-05-09 22h58.25.410205 +0300,
1,0:12,0:5,11,11,0,1,uyku,lamba,TR,space,0.9023555000312626,None,,,,,,,,,,,,,,,0,2,2,0,0,11,11,11,,,,,,,,,131.80686230002902,,,,,,,,,,,,,,,,,131.80287750001298,131.81332030001795,133.298851700034,133.5156364000286,,,,,,,,,,,,,,,,,,,,,,,,,,,,,,,pilot,001,2026-05-09_22h58.25.245,false_memory_experiment,,2026.1.3,165.0840607711841,2026-05-09 22h58.25.410205 +0300,
1,0:12,0:5,0,0,0,,,,,space,0.9023555000312626,None,5 + 32 = 42,left,left,1.454496999969706,None,,,,,,,,,,0,2,2,0,,,,,0,0,0,15,,,,,133.5156364000286,,,,,,,,,,,,,,,,,,,,,133.29992550000316,133.29995990003226,133.50843470002292,133.5156364000286,133.5156364000286,133.5156364000286,134.97235830000136,left,1.454496999969706,None,,,,,,,,,,,,,,,,,,,,,pilot,001,2026-05-09_22h58.25.245,false_memory_experiment,,2026.1.3,165.0840607711841,2026-05-09 22h58.25.410205 +0300,
1,0:12,0:5,1,1,0,,,,,space,0.9023555000312626,None,38 - 18 = 19,left,left,0.8974481000332162,None,,,,,,,,,,0,2,2,0,,,,,0,1,1,26,,,,,134.97667590004858,,,,,,,,,,,,,,,,,,,,,,,134.97363690001657,134.97667590004858,134.97667590004858,134.97667590004858,135.8749485000153,left,0.8974481000332162,None,,,,,,,,,,,,,,,,,,,,,pilot,001,2026-05-09_22h58.25.245,false_memory_experiment,,2026.1.3,165.0840607711841,2026-05-09 22h58.25.410205 +0300,
1,0:12,0:5,2,2,0,,,,,space,0.9023555000312626,None,44 + 5 = 49,right,right,0.7785802000435069,None,,,,,,,,,,0,2,2,0,,,,,0,2,2,16,,,,,135.87964480003575,,,,,,,,,,,,,,,,,,,,,,,135.8763397000148,135.87964480003575,135.87964480003575,135.87964480003575,136.66257879999466,right,0.7785802000435069,None,,,,,,,,,,,,,,,,,,,,,pilot,001,2026-05-09_22h58.25.245,false_memory_experiment,,2026.1.3,165.0840607711841,2026-05-09 22h58.25.410205 +0300,
1,0:12,0:5,3,3,0,,,,,space,0.9023555000312626,None,32 + 41 = 70,left,left,1.5026105999713764,None,,,,,,,,,,0,2,2,0,,,,,0,3,3,34,,,,,136.66754380002385,,,,,,,,,,,,,,,,,,,,,,,136.6638726000092,136.66754380002385,136.66754380002385,136.66754380002385,138.17227670003194,left,1.5026105999713764,None,,,,,,,,,,,,,,,,,,,,,pilot,001,2026-05-09_22h58.25.245,false_memory_experiment,,2026.1.3,165.0840607711841,2026-05-09 22h58.25.410205 +0300,
1,0:12,0:5,4,4,0,,,,,space,0.9023555000312626,None,25 + 28 = 50,left,left,1.1135118000092916,None,,,,,,,,,,0,2,2,0,,,,,0,4,4,3,,,,,138.17660880001495,,,,,,,,,,,,,,,,,,,,,,,138.17356880003354,138.17660880001495,138.17660880001495,138.17660880001495,139.29306390002603,left,1.1135118000092916,None,,,,,,,,,,,,,,,,,,,,,pilot,001,2026-05-09_22h58.25.245,false_memory_experiment,,2026.1.3,165.0840607711841,2026-05-09 22h58.25.410205 +0300,
1,0:12,0:5,5,5,0,,,,,space,0.9023555000312626,None,24 + 33 = 60,left,left,1.1042958000325598,None,,,,,,,,,,0,2,2,0,,,,,0,5,5,10,,,,,139.29778490000172,,,,,,,,,,,,,,,,,,,,,,,139.29436040000292,139.29778490000172,139.29778490000172,139.29778490000172,140.40800990001298,left,1.1042958000325598,None,,,,,,,,,,,,,,,,,,,,,pilot,001,2026-05-09_22h58.25.245,false_memory_experiment,,2026.1.3,165.0840607711841,2026-05-09 22h58.25.410205 +0300,
1,0:12,0:5,6,6,0,,,,,space,0.9023555000312626,None,17 - 7 = 11,left,left,1.0214055000105873,None,,,,,,,,,,0,2,2,0,,,,,0,6,6,22,,,,,140.41286310000578,,,,,,,,,,,,,,,,,,,,,,,140.40928060002625,140.41286310000578,140.41286310000578,140.41286310000578,141.4382806000067,left,1.0214055000105873,None,,,,,,,,,,,,,,,,,,,,,pilot,001,2026-05-09_22h58.25.245,false_memory_experiment,,2026.1.3,165.0840607711841,2026-05-09 22h58.25.410205 +0300,
1,0:12,0:5,7,7,0,,,,,space,0.9023555000312626,None,40 - 22 = 19,left,left,1.0629154999624006,None,,,,,,,,,,0,2,2,0,,,,,0,7,7,24,,,,,141.44316860003164,,,,,,,,,,,,,,,,,,,,,,,141.43955800001277,141.44316860003164,141.44316860003164,141.44316860003164,142.5112210000516,left,1.0629154999624006,None,,,,,,,,,,,,,,,,,,,,,pilot,001,2026-05-09_22h58.25.245,false_memory_experiment,,2026.1.3,165.0840607711841,2026-05-09 22h58.25.410205 +0300,
1,0:12,0:5,8,8,0,,,,,space,0.9023555000312626,None,19 + 11 = 30,right,right,1.1504309000447392,None,,,,,,,,,,0,2,2,0,,,,,0,8,8,33,,,,,142.515854199999,,,,,,,,,,,,,,,,,,,,,,,142.5125107000349,142.515854199999,142.515854199999,142.515854199999,143.66914840001846,right,1.1504309000447392,None,,,,,,,,,,,,,,,,,,,,,pilot,001,2026-05-09_22h58.25.245,false_memory_experiment,,2026.1.3,165.0840607711841,2026-05-09 22h58.25.410205 +0300,
1,0:12,0:5,9,9,0,,,,,space,0.9023555000312626,None,5 + 6 = 6,left,left,0.880834000010509,None,,,,,,,,,,0,2,2,0,,,,,0,9,9,13,,,,,143.67351460002828,,,,,,,,,,,,,,,,,,,,,,,143.67046660004416,143.67351460002828,143.67351460002828,143.67351460002828,144.55946650000988,left,0.880834000010509,None,,,,,,,,,,,,,,,,,,,,,pilot,001,2026-05-09_22h58.25.245,false_memory_experiment,,2026.1.3,165.0840607711841,2026-05-09 22h58.25.410205 +0300,
1,0:12,0:5,10,10,0,,,,,space,0.9023555000312626,None,8 + 39 = 46,left,left,2.42960510001285,None,,,,,,,,,,0,2,2,0,,,,,0,10,10,0,,,,,144.56446280004457,,,,,,,,,,,,,,,,,,,,,,,144.5607368000201,144.56446280004457,144.56446280004457,144.56446280004457,146.99567740003113,left,2.42960510001285,None,,,,,,,,,,,,,,,,,,,,,pilot,001,2026-05-09_22h58.25.245,false_memory_experiment,,2026.1.3,165.0840607711841,2026-05-09 22h58.25.410205 +0300,
1,0:12,0:5,11,11,0,,,,,space,0.9023555000312626,None,13 + 14 = 26,left,None,,,,,,,,,,,,0,2,2,0,,,,,0,11,11,29,,,,,147.00073369999882,,,,,,,,,,,,,,,,,,,,,,,146.99698799999896,147.00073369999882,147.00073369999882,147.00073369999882,148.30740580003476,None,,,,,,,,,,,,,,,,,,,,,,,pilot,001,2026-05-09_22h58.25.245,false_memory_experiment,,2026.1.3,165.0840607711841,2026-05-09 22h58.25.410205 +0300,
1,0:12,0:5,0,0,0,1,,,TR,space,0.9023555000312626,None,,right,,,,lamba,old,space,1.0309729000437073,None,right,1,1.4047644000384025,None,0,2,2,0,,,,,,,,,0,0,0,1,149.35756970004877,,,,,,,,,,,,,,,,,,,,,,,,,,,,,,,148.30875950003974,148.31515830004355,148.31515830004355,149.34796820004703,space,1.0309729000437073,None,149.35460030002287,149.35756970004877,149.35756970004877,149.35756970004877,150.76552790001733,right,1,1.4047644000384025,None,,,,,pilot,001,2026-05-09_22h58.25.245,false_memory_experiment,,2026.1.3,165.0840607711841,2026-05-09 22h58.25.410205 +0300,
1,0:12,0:5,1,1,0,1,,,TR,space,0.9023555000312626,None,,left,,,,araba,distractor,space,1.0309729000437073,None,left,1,0.6558893999899738,None,0,2,2,0,,,,,,,,,0,1,1,3,150.7703560999944,,,,,,,,,,,,,,,,,,,,,,,,,,,,,,,,,,,,,,150.76657070004148,150.7703560999944,150.7703560999944,150.7703560999944,151.43225140002323,left,1,0.6558893999899738,None,,,,,pilot,001,2026-05-09_22h58.25.245,false_memory_experiment,,2026.1.3,165.0840607711841,2026-05-09 22h58.25.410205 +0300,
1,0:12,0:5,2,2,0,1,,,TR,space,0.9023555000312626,None,,left,,,,sandalye,distractor,space,1.0309729000437073,None,right,0,1.1172172999940813,None,0,2,2,0,,,,,,,,,0,2,2,2,151.43694310000865,,,,,,,,,,,,,,,,,,,,,,,,,,,,,,,,,,,,,,151.43334780004807,151.43694310000865,151.43694310000865,151.43694310000865,152.5592877000454,right,0,1.1172172999940813,None,,,,,pilot,001,2026-05-09_22h58.25.245,false_memory_experiment,,2026.1.3,165.0840607711841,2026-05-09 22h58.25.410205 +0300,
1,0:12,0:5,3,3,0,1,,,TR,space,0.9023555000312626,None,,left,,,,uyku,critical_lure,space,1.0309729000437073,None,right,0,0.67006879998371,None,0,2,2,0,,,,,,,,,0,3,3,4,152.56433940003626,,,,,,,,,,,,,,,,,,,,,,,,,,,,,,,,,,,,,,152.56022360001225,152.56433940003626,152.56433940003626,152.56433940003626,153.23798980005085,right,0,0.67006879998371,None,,,,,pilot,001,2026-05-09_22h58.25.245,false_memory_experiment,,2026.1.3,165.0840607711841,2026-05-09 22h58.25.410205 +0300,
1,0:12,0:5,4,4,0,1,,,TR,space,0.9023555000312626,None,,right,,,,yatak,old,space,1.0309729000437073,None,right,1,0.9505307999788783,None,0,2,2,0,,,,,,,,,0,4,4,0,153.24353890004568,,,,,,,,,,,,,,,,,,,,,,,,,,,,,,,,,,,,,,153.23903480003355,153.24353890004568,153.24353890004568,153.24353890004568,154.195614700031,right,1,0.9505307999788783,None,,,,,pilot,001,2026-05-09_22h58.25.245,false_memory_experiment,,2026.1.3,165.0840607711841,2026-05-09 22h58.25.410205 +0300,
1,0:12,0:5,2,2,0,,,,,space,0.9023555000312626,None,,,,,,,,space,1.0309729000437073,None,,,,,0,2,2,0,,,,,,,,,,,,,,,,,,,,,,,,,,,,,,,,,,,,,,,,,,,,,,,,,,,,,,,,,,,,,,,,pilot,001,2026-05-09_22h58.25.245,false_memory_experiment,,2026.1.3,165.0840607711841,2026-05-09 22h58.25.410205 +0300,
4,36:48,15:20,0,0,0,4,sleep,bed,EN,space,0.7376001000520773,None,,,,,,,,,,,,,,,0,3,3,3,0,0,0,0,,,,,,,,,154.95748800004367,,,,,,,,,,154.19655220001005,154.20071150001604,154.20071150001604,154.9418871999951,space,0.7376001000520773,None,154.95089180005016,154.95748800004367,156.4443224000279,,,,,,,,,,,,,,,,,,,,,,,,,,,,,,,,pilot,001,2026-05-09_22h58.25.245,false_memory_experiment,,2026.1.3,165.0840607711841,2026-05-09 22h58.25.410205 +0300,
4,36:48,15:20,1,1,0,4,sleep,dream,EN,space,0.7376001000520773,None,,,,,,,,,,,,,,,0,3,3,3,0,1,1,1,,,,,,,,,156.4489067000104,,,,,,,,,,,,,,,,,156.44536120002158,156.4489067000104,157.93479430000298,157.9416694000247,,,,,,,,,,,,,,,,,,,,,,,,,,,,,,,pilot,001,2026-05-09_22h58.25.245,false_memory_experiment,,2026.1.3,165.0840607711841,2026-05-09 22h58.25.410205 +0300,
4,36:48,15:20,2,2,0,4,sleep,pillow,EN,space,0.7376001000520773,None,,,,,,,,,,,,,,,0,3,3,3,0,2,2,2,,,,,,,,,157.9416694000247,,,,,,,,,,,,,,,,,157.93577910005115,157.9416694000247,159.42596020002384,159.43076810002094,,,,,,,,,,,,,,,,,,,,,,,,,,,,,,,pilot,001,2026-05-09_22h58.25.245,false_memory_experiment,,2026.1.3,165.0840607711841,2026-05-09 22h58.25.410205 +0300,
4,36:48,15:20,3,3,0,4,sleep,night,EN,space,0.7376001000520773,None,,,,,,,,,,,,,,,0,3,3,3,0,3,3,3,,,,,,,,,159.43076810002094,,,,,,,,,,,,,,,,,159.42695610004012,159.43076810002094,160.9166956000263,160.92192200000864,,,,,,,,,,,,,,,,,,,,,,,,,,,,,,,pilot,001,2026-05-09_22h58.25.245,false_memory_experiment,,2026.1.3,165.0840607711841,2026-05-09 22h58.25.410205 +0300,
4,36:48,15:20,4,4,0,4,sleep,blanket,EN,space,0.7376001000520773,None,,,,,,,,,,,,,,,0,3,3,3,0,4,4,4,,,,,,,,,160.92192200000864,,,,,,,,,,,,,,,,,160.91788940003607,160.93369660002645,162.42129510000814,162.42457279999508,,,,,,,,,,,,,,,,,,,,,,,,,,,,,,,pilot,001,2026-05-09_22h58.25.245,false_memory_experiment,,2026.1.3,165.0840607711841,2026-05-09 22h58.25.410205 +0300,
4,36:48,15:20,5,5,0,4,sleep,rest,EN,space,0.7376001000520773,None,,,,,,,,,,,,,,,0,3,3,3,0,5,5,5,,,,,,,,,162.42457279999508,,,,,,,,,,,,,,,,,162.42223730002297,162.43062550004106,163.91652830003295,163.92221250000875,,,,,,,,,,,,,,,,,,,,,,,,,,,,,,,pilot,001,2026-05-09_22h58.25.245,false_memory_experiment,,2026.1.3,165.0840607711841,2026-05-09 22h58.25.410205 +0300,
4,36:48,15:20,6,6,0,4,sleep,snore,EN,space,0.7376001000520773,None,,,,,,,,,,,,,,,0,3,3,3,0,6,6,6,,,,,,,,,163.92221250000875,,,,,,,,,,,,,,,,,163.91752820002148,163.93373160000192,165.42026169999735,165.42463550000684,,,,,,,,,,,,,,,,,,,,,,,,,,,,,,,pilot,001,2026-05-09_22h58.25.245,false_memory_experiment,,2026.1.3,165.0840607711841,2026-05-09 22h58.25.410205 +0300,
4,36:48,15:20,7,7,0,4,sleep,tired,EN,space,0.7376001000520773,None,,,,,,,,,,,,,,,0,3,3,3,0,7,7,7,,,,,,,,,165.42463550000684,,,,,,,,,,,,,,,,,165.42128050001338,165.4306950000464,166.91654090001248,166.92191870004172,,,,,,,,,,,,,,,,,,,,,,,,,,,,,,,pilot,001,2026-05-09_22h58.25.245,false_memory_experiment,,2026.1.3,165.0840607711841,2026-05-09 22h58.25.410205 +0300,
4,36:48,15:20,8,8,0,4,sleep,nap,EN,space,0.7376001000520773,None,,,,,,,,,,,,,,,0,3,3,3,0,8,8,8,,,,,,,,,166.92191870004172,,,,,,,,,,,,,,,,,166.9175477999961,166.93360480002593,168.4195330000366,168.42449220002163,,,,,,,,,,,,,,,,,,,,,,,,,,,,,,,pilot,001,2026-05-09_22h58.25.245,false_memory_experiment,,2026.1.3,165.0840607711841,2026-05-09 22h58.25.410205 +0300,
4,36:48,15:20,9,9,0,4,sleep,dark,EN,space,0.7376001000520773,None,,,,,,,,,,,,,,,0,3,3,3,0,9,9,9,,,,,,,,,168.42449220002163,,,,,,,,,,,,,,,,,168.42044330004137,168.430577000021,169.91650740004843,169.92198889999418,,,,,,,,,,,,,,,,,,,,,,,,,,,,,,,pilot,001,2026-05-09_22h58.25.245,false_memory_experiment,,2026.1.3,165.0840607711841,2026-05-09 22h58.25.410205 +0300,
4,36:48,15:20,10,10,0,4,sleep,pajamas,EN,space,0.7376001000520773,None,,,,,,,,,,,,,,,0,3,3,3,0,10,10,10,,,,,,,,,169.92198889999418,,,,,,,,,,,,,,,,,169.91755950002698,169.93361330003245,171.4198668000172,171.42453950003255,,,,,,,,,,,,,,,,,,,,,,,,,,,,,,,pilot,001,2026-05-09_22h58.25.245,false_memory_experiment,,2026.1.3,165.0840607711841,2026-05-09 22h58.25.410205 +0300,
4,36:48,15:20,11,11,0,4,sleep,yawn,EN,space,0.7376001000520773,None,,,,,,,,,,,,,,,0,3,3,3,0,11,11,11,,,,,,,,,171.42453950003255,,,,,,,,,,,,,,,,,171.420789900003,171.43055700004334,172.9176580000203,173.1391578000039,,,,,,,,,,,,,,,,,,,,,,,,,,,,,,,pilot,001,2026-05-09_22h58.25.245,false_memory_experiment,,2026.1.3,165.0840607711841,2026-05-09 22h58.25.410205 +0300,
4,36:48,15:20,0,0,0,,,,,space,0.7376001000520773,None,44 - 29 = 15,right,left,1.0870098000159487,None,,,,,,,,,,0,3,3,3,,,,,0,0,0,21,,,,,173.1391578000039,,,,,,,,,,,,,,,,,,,,,172.91889920004178,172.9189382000477,173.13357950001955,173.1391578000039,173.1391578000039,173.1391578000039,174.2317179000238,left,1.0870098000159487,None,,,,,,,,,,,,,,,,,,,,,pilot,001,2026-05-09_22h58.25.245,false_memory_experiment,,2026.1.3,165.0840607711841,2026-05-09 22h58.25.410205 +0300,
4,36:48,15:20,1,1,0,,,,,space,0.7376001000520773,None,50 + 45 = 94,left,left,2.7019485000055283,None,,,,,,,,,,0,3,3,3,,,,,0,1,1,6,,,,,174.23680450004758,,,,,,,,,,,,,,,,,,,,,,,174.23300550004933,174.23680450004758,174.23680450004758,174.23680450004758,176.94142400001874,left,2.7019485000055283,None,,,,,,,,,,,,,,,,,,,,,pilot,001,2026-05-09_22h58.25.245,false_memory_experiment,,2026.1.3,165.0840607711841,2026-05-09 22h58.25.410205 +0300,
4,36:48,15:20,2,2,0,,,,,space,0.7376001000520773,None,24 + 33 = 60,left,left,1.2565432999981567,None,,,,,,,,,,0,3,3,3,,,,,0,2,2,10,,,,,176.94564260001061,,,,,,,,,,,,,,,,,,,,,,,176.94269400002668,176.94564260001061,176.94564260001061,176.94564260001061,178.20737400004873,left,1.2565432999981567,None,,,,,,,,,,,,,,,,,,,,,pilot,001,2026-05-09_22h58.25.245,false_memory_experiment,,2026.1.3,165.0840607711841,2026-05-09 22h58.25.410205 +0300,
4,36:48,15:20,3,3,0,,,,,space,0.7376001000520773,None,12 - 11 = 1,right,right,1.1023416999960318,None,,,,,,,,,,0,3,3,3,,,,,0,3,3,38,,,,,178.21226670005126,,,,,,,,,,,,,,,,,,,,,,,178.20864530000836,178.21226670005126,178.21226670005126,178.21226670005126,179.3171480000019,right,1.1023416999960318,None,,,,,,,,,,,,,,,,,,,,,pilot,001,2026-05-09_22h58.25.245,false_memory_experiment,,2026.1.3,165.0840607711841,2026-05-09 22h58.25.410205 +0300,
4,36:48,15:20,4,4,0,,,,,space,0.7376001000520773,None,19 + 33 = 53,left,left,1.1766825999948196,None,,,,,,,,,,0,3,3,3,,,,,0,4,4,4,,,,,179.32141190004768,,,,,,,,,,,,,,,,,,,,,,,179.31844310002634,179.32141190004768,179.32141190004768,179.32141190004768,180.50433540000813,left,1.1766825999948196,None,,,,,,,,,,,,,,,,,,,,,pilot,001,2026-05-09_22h58.25.245,false_memory_experiment,,2026.1.3,165.0840607711841,2026-05-09 22h58.25.410205 +0300,
4,36:48,15:20,5,5,0,,,,,space,0.7376001000520773,None,25 + 28 = 50,left,left,0.6049135999637656,None,,,,,,,,,,0,3,3,3,,,,,0,5,5,3,,,,,180.509185300034,,,,,,,,,,,,,,,,,,,,,,,180.50560880004195,180.509185300034,180.509185300034,180.509185300034,181.1163909000461,left,0.6049135999637656,None,,,,,,,,,,,,,,,,,,,,,pilot,001,2026-05-09_22h58.25.245,false_memory_experiment,,2026.1.3,165.0840607711841,2026-05-09 22h58.25.410205 +0300,
4,36:48,15:20,6,6,0,,,,,space,0.7376001000520773,None,32 + 41 = 70,left,left,1.1693321999628097,None,,,,,,,,,,0,3,3,3,,,,,0,6,6,34,,,,,181.12129209999694,,,,,,,,,,,,,,,,,,,,,,,181.1177883000346,181.12129209999694,181.12129209999694,181.12129209999694,182.29224670003168,left,1.1693321999628097,None,,,,,,,,,,,,,,,,,,,,,pilot,001,2026-05-09_22h58.25.245,false_memory_experiment,,2026.1.3,165.0840607711841,2026-05-09 22h58.25.410205 +0300,
4,36:48,15:20,7,7,0,,,,,space,0.7376001000520773,None,38 + 43 = 81,right,right,1.9608652000315487,None,,,,,,,,,,0,3,3,3,,,,,0,7,7,27,,,,,182.29733900004067,,,,,,,,,,,,,,,,,,,,,,,182.29355360002955,182.29733900004067,182.29733900004067,182.29733900004067,184.26171079999767,right,1.9608652000315487,None,,,,,,,,,,,,,,,,,,,,,pilot,001,2026-05-09_22h58.25.245,false_memory_experiment,,2026.1.3,165.0840607711841,2026-05-09 22h58.25.410205 +0300,
4,36:48,15:20,8,8,0,,,,,space,0.7376001000520773,None,28 + 42 = 69,left,left,1.1034187999903224,None,,,,,,,,,,0,3,3,3,,,,,0,8,8,36,,,,,184.26670190005098,,,,,,,,,,,,,,,,,,,,,,,184.2629869999946,184.26670190005098,184.26670190005098,184.26670190005098,185.37086310004815,left,1.1034187999903224,None,,,,,,,,,,,,,,,,,,,,,pilot,001,2026-05-09_22h58.25.245,false_memory_experiment,,2026.1.3,165.0840607711841,2026-05-09 22h58.25.410205 +0300,
4,36:48,15:20,9,9,0,,,,,space,0.7376001000520773,None,50 - 18 = 32,right,right,0.8181799000012688,None,,,,,,,,,,0,3,3,3,,,,,0,9,9,8,,,,,185.37612540001282,,,,,,,,,,,,,,,,,,,,,,,185.37218490004307,185.37612540001282,185.37612540001282,185.37612540001282,186.1954498999985,right,0.8181799000012688,None,,,,,,,,,,,,,,,,,,,,,pilot,001,2026-05-09_22h58.25.245,false_memory_experiment,,2026.1.3,165.0840607711841,2026-05-09 22h58.25.410205 +0300,
4,36:48,15:20,10,10,0,,,,,space,0.7376001000520773,None,24 + 8 = 32,right,right,1.1462240999680944,None,,,,,,,,,,0,3,3,3,,,,,0,10,10,14,,,,,186.19999360002112,,,,,,,,,,,,,,,,,,,,,,,186.19670260004932,186.19999360002112,186.19999360002112,186.19999360002112,187.34658510005102,right,1.1462240999680944,None,,,,,,,,,,,,,,,,,,,,,pilot,001,2026-05-09_22h58.25.245,false_memory_experiment,,2026.1.3,165.0840607711841,2026-05-09 22h58.25.410205 +0300,
4,36:48,15:20,11,11,0,,,,,space,0.7376001000520773,None,39 + 49 = 93,left,None,,,,,,,,,,,,0,3,3,3,,,,,0,11,11,31,,,,,187.35208500002045,,,,,,,,,,,,,,,,,,,,,,,187.3478904000367,187.35208500002045,187.35208500002045,187.35208500002045,187.92526470002485,None,,,,,,,,,,,,,,,,,,,,,,,pilot,001,2026-05-09_22h58.25.245,false_memory_experiment,,2026.1.3,165.0840607711841,2026-05-09 22h58.25.410205 +0300,
4,36:48,15:20,0,0,0,4,,,EN,space,0.7376001000520773,None,,right,,,,yawn,old,space,4.413430200016592,None,left,0,5.5993483000202104,None,0,3,3,3,,,,,,,,,0,0,0,1,192.36291210004129,,,,,,,,,,,,,,,,,,,,,,,,,,,,,,,187.9265837999992,187.93275800003903,187.93275800003903,192.3528067000443,space,4.413430200016592,None,192.35944730002666,192.36291210004129,192.36291210004129,192.36291210004129,197.96458510000957,left,0,5.5993483000202104,None,,,,,pilot,001,2026-05-09_22h58.25.245,false_memory_experiment,,2026.1.3,165.0840607711841,2026-05-09 22h58.25.410205 +0300,
4,36:48,15:20,1,1,0,4,,,EN,space,0.7376001000520773,None,,left,,,,car,distractor,space,4.413430200016592,None,right,0,1.4165321000036784,None,0,3,3,3,,,,,,,,,0,1,1,3,197.96971080004005,,,,,,,,,,,,,,,,,,,,,,,,,,,,,,,,,,,,,,197.96552410000004,197.96971080004005,197.96971080004005,197.96971080004005,199.38912400003755,right,0,1.4165321000036784,None,,,,,pilot,001,2026-05-09_22h58.25.245,false_memory_experiment,,2026.1.3,165.0840607711841,2026-05-09 22h58.25.410205 +0300,
4,36:48,15:20,2,2,0,4,,,EN,space,0.7376001000520773,None,,left,,,,sleep,critical_lure,space,4.413430200016592,None,left,1,1.5607262999983504,None,0,3,3,3,,,,,,,,,0,2,2,4,199.3937178000342,,,,,,,,,,,,,,,,,,,,,,,,,,,,,,,,,,,,,,199.39020399999572,199.3937178000342,199.3937178000342,199.3937178000342,200.95854030002374,left,1,1.5607262999983504,None,,,,,pilot,001,2026-05-09_22h58.25.245,false_memory_experiment,,2026.1.3,165.0840607711841,2026-05-09 22h58.25.410205 +0300,
4,36:48,15:20,3,3,0,4,,,EN,space,0.7376001000520773,None,,left,,,,chair,distractor,space,4.413430200016592,None,right,0,1.2869672999950126,None,0,3,3,3,,,,,,,,,0,3,3,2,200.96341570001096,,,,,,,,,,,,,,,,,,,,,,,,,,,,,,,,,,,,,,200.9595877000247,200.96341570001096,200.96341570001096,200.96341570001096,202.2554796000477,right,0,1.2869672999950126,None,,,,,pilot,001,2026-05-09_22h58.25.245,false_memory_experiment,,2026.1.3,165.0840607711841,2026-05-09 22h58.25.410205 +0300,
4,36:48,15:20,4,4,0,4,,,EN,space,0.7376001000520773,None,,right,,,,bed,old,space,4.413430200016592,None,right,1,0.901910400018096,None,0,3,3,3,,,,,,,,,0,4,4,0,202.26035180001054,,,,,,,,,,,,,,,,,,,,,,,,,,,,,,,,,,,,,,202.25642320001498,202.26035180001054,202.26035180001054,202.26035180001054,203.1645688000135,right,1,0.901910400018096,None,,,,,pilot,001,2026-05-09_22h58.25.245,false_memory_experiment,,2026.1.3,165.0840607711841,2026-05-09 22h58.25.410205 +0300,
4,36:48,15:20,3,3,0,,,,,space,0.7376001000520773,None,,,,,,,,space,4.413430200016592,None,,,,,0,3,3,3,,,,,,,,,,,,,,,,,,,,,,,,,,,,,,,,,,,,,,,,,,,,,,,,,,,,,,,,,,,,,,,,pilot,001,2026-05-09_22h58.25.245,false_memory_experiment,,2026.1.3,165.0840607711841,2026-05-09 22h58.25.410205 +0300,
3,24:36,10:15,0,0,0,3,soğuk,kış,TR,space,0.8168641999945976,None,,,,,,,,,,,,,,,0,4,4,2,0,0,0,0,,,,,,,,,204.00487020000583,,,,,,,,,,203.16552650002996,203.16961280000396,203.16961280000396,203.98886690003565,space,0.8168641999945976,None,203.9991641000379,204.00487020000583,205.49164820002625,,,,,,,,,,,,,,,,,,,,,,,,,,,,,,,,pilot,001,2026-05-09_22h58.25.245,false_memory_experiment,,2026.1.3,165.0840607711841,2026-05-09 22h58.25.410205 +0300,
3,24:36,10:15,1,1,0,3,soğuk,buz,TR,space,0.8168641999945976,None,,,,,,,,,,,,,,,0,4,4,2,0,1,1,1,,,,,,,,,205.49660170002608,,,,,,,,,,,,,,,,,205.4926684999955,205.49660170002608,206.98257950000698,206.98765379999531,,,,,,,,,,,,,,,,,,,,,,,,,,,,,,,pilot,001,2026-05-09_22h58.25.245,false_memory_experiment,,2026.1.3,165.0840607711841,2026-05-09 22h58.25.410205 +0300,
3,24:36,10:15,2,2,0,3,soğuk,kar,TR,space,0.8168641999945976,None,,,,,,,,,,,,,,,0,4,4,2,0,2,2,2,,,,,,,,,206.98765379999531,,,,,,,,,,,,,,,,,206.98347259999719,206.98765379999531,208.4734839000157,208.47847640002146,,,,,,,,,,,,,,,,,,,,,,,,,,,,,,,pilot,001,2026-05-09_22h58.25.245,false_memory_experiment,,2026.1.3,165.0840607711841,2026-05-09 22h58.25.410205 +0300,
3,24:36,10:15,3,3,0,3,soğuk,üşümek,TR,space,0.8168641999945976,None,,,,,,,,,,,,,,,0,4,4,2,0,3,3,3,,,,,,,,,208.47847640002146,,,,,,,,,,,,,,,,,208.47456709999824,208.47847640002146,209.96471500000916,209.9692488000146,,,,,,,,,,,,,,,,,,,,,,,,,,,,,,,pilot,001,2026-05-09_22h58.25.245,false_memory_experiment,,2026.1.3,165.0840607711841,2026-05-09 22h58.25.410205 +0300,
3,24:36,10:15,4,4,0,3,soğuk,dondurucu,TR,space,0.8168641999945976,None,,,,,,,,,,,,,,,0,4,4,2,0,4,4,4,,,,,,,,,209.9692488000146,,,,,,,,,,,,,,,,,209.9657911999966,209.98300390003715,211.46812710002996,211.4723644000478,,,,,,,,,,,,,,,,,,,,,,,,,,,,,,,pilot,001,2026-05-09_22h58.25.245,false_memory_experiment,,2026.1.3,165.0840607711841,2026-05-09 22h58.25.410205 +0300,
3,24:36,10:15,5,5,0,3,soğuk,ayaz,TR,space,0.8168641999945976,None,,,,,,,,,,,,,,,0,4,4,2,0,5,5,5,,,,,,,,,211.4723644000478,,,,,,,,,,,,,,,,,211.46932550001657,211.4783979000058,212.96435250004288,212.96917400002712,,,,,,,,,,,,,,,,,,,,,,,,,,,,,,,pilot,001,2026-05-09_22h58.25.245,false_memory_experiment,,2026.1.3,165.0840607711841,2026-05-09 22h58.25.410205 +0300,
3,24:36,10:15,6,6,0,3,soğuk,titremek,TR,space,0.8168641999945976,None,,,,,,,,,,,,,,,0,4,4,2,0,6,6,6,,,,,,,,,212.96917400002712,,,,,,,,,,,,,,,,,212.96543840004597,212.98218789999373,214.46750130003784,214.47233580000466,,,,,,,,,,,,,,,,,,,,,,,,,,,,,,,pilot,001,2026-05-09_22h58.25.245,false_memory_experiment,,2026.1.3,165.0840607711841,2026-05-09 22h58.25.410205 +0300,
3,24:36,10:15,7,7,0,3,soğuk,derece,TR,space,0.8168641999945976,None,,,,,,,,,,,,,,,0,4,4,2,0,7,7,7,,,,,,,,,214.47233580000466,,,,,,,,,,,,,,,,,214.46858090005117,214.47837580001215,215.96440940001048,215.96915499999886,,,,,,,,,,,,,,,,,,,,,,,,,,,,,,,pilot,001,2026-05-09_22h58.25.245,false_memory_experiment,,2026.1.3,165.0840607711841,2026-05-09 22h58.25.410205 +0300,
3,24:36,10:15,8,8,0,3,soğuk,hava,TR,space,0.8168641999945976,None,,,,,,,,,,,,,,,0,4,4,2,0,8,8,8,,,,,,,,,215.96915499999886,,,,,,,,,,,,,,,,,215.96545120002702,215.98206579999533,217.46726990002207,217.47223340003984,,,,,,,,,,,,,,,,,,,,,,,,,,,,,,,pilot,001,2026-05-09_22h58.25.245,false_memory_experiment,,2026.1.3,165.0840607711841,2026-05-09 22h58.25.410205 +0300,
3,24:36,10:15,9,9,0,3,soğuk,rüzgar,TR,space,0.8168641999945976,None,,,,,,,,,,,,,,,0,4,4,2,0,9,9,9,,,,,,,,,217.47223340003984,,,,,,,,,,,,,,,,,217.46834190003574,217.47985570004676,218.9644774000044,218.96913460001815,,,,,,,,,,,,,,,,,,,,,,,,,,,,,,,pilot,001,2026-05-09_22h58.25.245,false_memory_experiment,,2026.1.3,165.0840607711841,2026-05-09 22h58.25.410205 +0300,
3,24:36,10:15,10,10,0,3,soğuk,mont,TR,space,0.8168641999945976,None,,,,,,,,,,,,,,,0,4,4,2,0,10,10,10,,,,,,,,,218.96913460001815,,,,,,,,,,,,,,,,,218.96539530000882,218.98146239999915,220.46717170003103,220.47209749999456,,,,,,,,,,,,,,,,,,,,,,,,,,,,,,,pilot,001,2026-05-09_22h58.25.245,false_memory_experiment,,2026.1.3,165.0840607711841,2026-05-09 22h58.25.410205 +0300,
3,24:36,10:15,11,11,0,3,soğuk,eldiven,TR,space,0.8168641999945976,None,,,,,,,,,,,,,,,0,4,4,2,0,11,11,11,,,,,,,,,220.47209749999456,,,,,,,,,,,,,,,,,220.46815670002252,220.47824780002702,221.96407360001467,222.18083560001105,,,,,,,,,,,,,,,,,,,,,,,,,,,,,,,pilot,001,2026-05-09_22h58.25.245,false_memory_experiment,,2026.1.3,165.0840607711841,2026-05-09 22h58.25.410205 +0300,
3,24:36,10:15,0,0,0,,,,,space,0.8168641999945976,None,44 - 7 = 37,right,left,1.613417299988214,None,,,,,,,,,,0,4,4,2,,,,,0,0,0,35,,,,,222.18083560001105,,,,,,,,,,,,,,,,,,,,,221.96527390001575,221.96530770004028,222.17619640001794,222.18083560001105,222.18083560001105,222.18083560001105,223.8009507000097,left,1.613417299988214,None,,,,,,,,,,,,,,,,,,,,,pilot,001,2026-05-09_22h58.25.245,false_memory_experiment,,2026.1.3,165.0840607711841,2026-05-09 22h58.25.410205 +0300,
3,24:36,10:15,1,1,0,,,,,space,0.8168641999945976,None,19 - 15 = 3,left,left,1.108611400006339,None,,,,,,,,,,0,4,4,2,,,,,0,1,1,7,,,,,223.80544570001075,,,,,,,,,,,,,,,,,,,,,,,223.80222270003287,223.80544570001075,223.80544570001075,223.80544570001075,224.91560110001592,left,1.108611400006339,None,,,,,,,,,,,,,,,,,,,,,pilot,001,2026-05-09_22h58.25.245,false_memory_experiment,,2026.1.3,165.0840607711841,2026-05-09 22h58.25.410205 +0300,
3,24:36,10:15,2,2,0,,,,,space,0.8168641999945976,None,24 + 33 = 60,left,left,1.401225199981127,None,,,,,,,,,,0,4,4,2,,,,,0,2,2,10,,,,,224.92087590001756,,,,,,,,,,,,,,,,,,,,,,,224.91687130002538,224.92087590001756,224.92087590001756,224.92087590001756,226.32767369999783,left,1.401225199981127,None,,,,,,,,,,,,,,,,,,,,,pilot,001,2026-05-09_22h58.25.245,false_memory_experiment,,2026.1.3,165.0840607711841,2026-05-09 22h58.25.410205 +0300,
3,24:36,10:15,3,3,0,,,,,space,0.8168641999945976,None,25 + 28 = 50,left,left,1.3575459999847226,None,,,,,,,,,,0,4,4,2,,,,,0,3,3,3,,,,,226.33273670001654,,,,,,,,,,,,,,,,,,,,,,,226.3293198000174,226.33273670001654,226.33273670001654,226.33273670001654,227.69145600002958,left,1.3575459999847226,None,,,,,,,,,,,,,,,,,,,,,pilot,001,2026-05-09_22h58.25.245,false_memory_experiment,,2026.1.3,165.0840607711841,2026-05-09 22h58.25.410205 +0300,
3,24:36,10:15,4,4,0,,,,,space,0.8168641999945976,None,19 + 11 = 30,right,right,1.1219376999652013,None,,,,,,,,,,0,4,4,2,,,,,0,4,4,33,,,,,227.6964548000251,,,,,,,,,,,,,,,,,,,,,,,227.69274480000604,227.6964548000251,227.6964548000251,227.6964548000251,228.81904150004266,right,1.1219376999652013,None,,,,,,,,,,,,,,,,,,,,,pilot,001,2026-05-09_22h58.25.245,false_memory_experiment,,2026.1.3,165.0840607711841,2026-05-09 22h58.25.410205 +0300,
3,24:36,10:15,5,5,0,,,,,space,0.8168641999945976,None,12 - 11 = 1,right,right,0.6984945999574848,None,,,,,,,,,,0,4,4,2,,,,,0,5,5,38,,,,,228.82360460003838,,,,,,,,,,,,,,,,,,,,,,,228.82030170003418,228.82360460003838,228.82360460003838,228.82360460003838,229.52765430003637,right,0.6984945999574848,None,,,,,,,,,,,,,,,,,,,,,pilot,001,2026-05-09_22h58.25.245,false_memory_experiment,,2026.1.3,165.0840607711841,2026-05-09 22h58.25.410205 +0300,
3,24:36,10:15,6,6,0,,,,,space,0.8168641999945976,None,38 - 18 = 19,left,left,1.0294322000117972,None,,,,,,,,,,0,4,4,2,,,,,0,6,6,26,,,,,229.5326761000324,,,,,,,,,,,,,,,,,,,,,,,229.52902430004906,229.5326761000324,229.5326761000324,229.5326761000324,230.5640335000353,left,1.0294322000117972,None,,,,,,,,,,,,,,,,,,,,,pilot,001,2026-05-09_22h58.25.245,false_memory_experiment,,2026.1.3,165.0840607711841,2026-05-09 22h58.25.410205 +0300,
3,24:36,10:15,7,7,0,,,,,space,0.8168641999945976,None,18 + 6 = 24,right,right,0.7774130999459885,None,,,,,,,,,,0,4,4,2,,,,,0,7,7,18,,,,,230.56892750004772,,,,,,,,,,,,,,,,,,,,,,,230.56547289999435,230.56892750004772,230.56892750004772,230.56892750004772,231.3518541000085,right,0.7774130999459885,None,,,,,,,,,,,,,,,,,,,,,pilot,001,2026-05-09_22h58.25.245,false_memory_experiment,,2026.1.3,165.0840607711841,2026-05-09 22h58.25.410205 +0300,
3,24:36,10:15,8,8,0,,,,,space,0.8168641999945976,None,30 + 44 = 73,left,left,0.8772904999786988,None,,,,,,,,,,0,4,4,2,,,,,0,8,8,25,,,,,231.35716590000084,,,,,,,,,,,,,,,,,,,,,,,231.35318400000688,231.35716590000084,231.35716590000084,231.35716590000084,232.23679380002432,left,0.8772904999786988,None,,,,,,,,,,,,,,,,,,,,,pilot,001,2026-05-09_22h58.25.245,false_memory_experiment,,2026.1.3,165.0840607711841,2026-05-09 22h58.25.410205 +0300,
3,24:36,10:15,9,9,0,,,,,space,0.8168641999945976,None,37 + 41 = 78,right,right,1.1047189999953844,None,,,,,,,,,,0,4,4,2,,,,,0,9,9,20,,,,,232.24159690004308,,,,,,,,,,,,,,,,,,,,,,,232.23808570002439,232.24159690004308,232.24159690004308,232.24159690004308,233.35185760003515,right,1.1047189999953844,None,,,,,,,,,,,,,,,,,,,,,pilot,001,2026-05-09_22h58.25.245,false_memory_experiment,,2026.1.3,165.0840607711841,2026-05-09 22h58.25.410205 +0300,
3,24:36,10:15,10,10,0,,,,,space,0.8168641999945976,None,17 + 48 = 65,right,right,3.004889899981208,None,,,,,,,,,,0,4,4,2,,,,,0,10,10,5,,,,,233.3571722000488,,,,,,,,,,,,,,,,,,,,,,,233.35316600004444,233.3571722000488,233.3571722000488,233.3571722000488,236.36388990003616,right,3.004889899981208,None,,,,,,,,,,,,,,,,,,,,,pilot,001,2026-05-09_22h58.25.245,false_memory_experiment,,2026.1.3,165.0840607711841,2026-05-09 22h58.25.410205 +0300,
3,24:36,10:15,11,11,0,,,,,space,0.8168641999945976,None,25 + 26 = 46,left,None,,,,,,,,,,,,0,4,4,2,,,,,0,11,11,12,,,,,236.36881190002896,,,,,,,,,,,,,,,,,,,,,,,236.36517890001414,236.36881190002896,236.36881190002896,236.36881190002896,236.97272980003618,None,,,,,,,,,,,,,,,,,,,,,,,pilot,001,2026-05-09_22h58.25.245,false_memory_experiment,,2026.1.3,165.0840607711841,2026-05-09 22h58.25.410205 +0300,
3,24:36,10:15,0,0,0,3,,,TR,space,0.8168641999945976,None,,right,,,,kış,old,space,1.125885899993591,None,left,0,1.1546497999806888,None,0,4,4,2,,,,,,,,,0,0,0,0,238.11973900004523,,,,,,,,,,,,,,,,,,,,,,,,,,,,,,,236.97409160004463,236.9802542999969,236.9802542999969,238.10930870001903,space,1.125885899993591,None,238.1157591000083,238.11973900004523,238.11973900004523,238.11973900004523,239.27915390004637,left,0,1.1546497999806888,None,,,,,pilot,001,2026-05-09_22h58.25.245,false_memory_experiment,,2026.1.3,165.0840607711841,2026-05-09 22h58.25.410205 +0300,
3,24:36,10:15,1,1,0,3,,,TR,space,0.8168641999945976,None,,left,,,,bardak,distractor,space,1.125885899993591,None,left,1,2.0305371999857016,None,0,4,4,2,,,,,,,,,0,1,1,2,239.28391380002722,,,,,,,,,,,,,,,,,,,,,,,,,,,,,,,,,,,,,,239.28021650004666,239.28391380002722,239.28391380002722,239.28391380002722,241.3155980000156,left,1,2.0305371999857016,None,,,,,pilot,001,2026-05-09_22h58.25.245,false_memory_experiment,,2026.1.3,165.0840607711841,2026-05-09 22h58.25.410205 +0300,
3,24:36,10:15,2,2,0,3,,,TR,space,0.8168641999945976,None,,right,,,,mont,old,space,1.125885899993591,None,left,0,1.1938414000323974,None,0,4,4,2,,,,,,,,,0,2,2,1,241.32031370000914,,,,,,,,,,,,,,,,,,,,,,,,,,,,,,,,,,,,,,241.316553200013,241.32031370000914,241.32031370000914,241.32031370000914,242.51539640000556,left,0,1.1938414000323974,None,,,,,pilot,001,2026-05-09_22h58.25.245,false_memory_experiment,,2026.1.3,165.0840607711841,2026-05-09 22h58.25.410205 +0300,
3,24:36,10:15,3,3,0,3,,,TR,space,0.8168641999945976,None,,left,,,,soğuk,critical_lure,space,1.125885899993591,None,right,0,0.6368884000112303,None,0,4,4,2,,,,,,,,,0,3,3,4,242.52546960004838,,,,,,,,,,,,,,,,,,,,,,,,,,,,,,,,,,,,,,242.5178495,242.52546960004838,242.52546960004838,242.52546960004838,243.16378270002315,right,0,0.6368884000112303,None,,,,,pilot,001,2026-05-09_22h58.25.245,false_memory_experiment,,2026.1.3,165.0840607711841,2026-05-09 22h58.25.410205 +0300,
3,24:36,10:15,4,4,0,3,,,TR,space,0.8168641999945976,None,,left,,,,kağıt,distractor,space,1.125885899993591,None,left,1,1.1912822999875061,None,0,4,4,2,,,,,,,,,0,4,4,3,243.17077160003828,,,,,,,,,,,,,,,,,,,,,,,,,,,,,,,,,,,,,,243.16496530000586,243.17077160003828,243.17077160003828,243.17077160003828,244.3637754000374,left,1,1.1912822999875061,None,,,,,pilot,001,2026-05-09_22h58.25.245,false_memory_experiment,,2026.1.3,165.0840607711841,2026-05-09 22h58.25.410205 +0300,
3,24:36,10:15,4,4,0,,,,,space,0.8168641999945976,None,,,,,,,,space,1.125885899993591,None,,,,,0,4,4,2,,,,,,,,,,,,,,,,,,,,,,,,,,,,,,,,,,,,,,,,,,,,,,,,,,,,,,,,,,,,,,,,pilot,001,2026-05-09_22h58.25.245,false_memory_experiment,,2026.1.3,165.0840607711841,2026-05-09 22h58.25.410205 +0300,
2,12:24,5:10,0,0,0,2,tatlı,şeker,TR,space,0.79989939997904,None,,,,,,,,,,,,,,,0,5,5,1,0,0,0,0,,,,,,,,,245.18626320001204,,,,,,,,,,244.36472760001197,244.37029990000883,244.37029990000883,245.17140630003996,space,0.79989939997904,None,245.1805576000479,245.18626320001204,246.67296789999818,,,,,,,,,,,,,,,,,,,,,,,,,,,,,,,,pilot,001,2026-05-09_22h58.25.245,false_memory_experiment,,2026.1.3,165.0840607711841,2026-05-09 22h58.25.410205 +0300,
2,12:24,5:10,1,1,0,2,tatlı,çikolata,TR,space,0.79989939997904,None,,,,,,,,,,,,,,,0,5,5,1,0,1,1,1,,,,,,,,,246.6774795000092,,,,,,,,,,,,,,,,,246.6751797000179,246.6774795000092,248.16362560004927,248.16863540001214,,,,,,,,,,,,,,,,,,,,,,,,,,,,,,,pilot,001,2026-05-09_22h58.25.245,false_memory_experiment,,2026.1.3,165.0840607711841,2026-05-09 22h58.25.410205 +0300,
2,12:24,5:10,2,2,0,2,tatlı,pasta,TR,space,0.79989939997904,None,,,,,,,,,,,,,,,0,5,5,1,0,2,2,2,,,,,,,,,248.16863540001214,,,,,,,,,,,,,,,,,248.16465410002274,248.16863540001214,249.6544702000101,249.6594085000106,,,,,,,,,,,,,,,,,,,,,,,,,,,,,,,pilot,001,2026-05-09_22h58.25.245,false_memory_experiment,,2026.1.3,165.0840607711841,2026-05-09 22h58.25.410205 +0300,
2,12:24,5:10,3,3,0,2,tatlı,bal,TR,space,0.79989939997904,None,,,,,,,,,,,,,,,0,5,5,1,0,3,3,3,,,,,,,,,249.6594085000106,,,,,,,,,,,,,,,,,249.65537100000074,249.6655137000489,251.1518610000494,251.1564178999979,,,,,,,,,,,,,,,,,,,,,,,,,,,,,,,pilot,001,2026-05-09_22h58.25.245,false_memory_experiment,,2026.1.3,165.0840607711841,2026-05-09 22h58.25.410205 +0300,
2,12:24,5:10,4,4,0,2,tatlı,reçel,TR,space,0.79989939997904,None,,,,,,,,,,,,,,,0,5,5,1,0,4,4,4,,,,,,,,,251.1564178999979,,,,,,,,,,,,,,,,,251.15298690000782,251.16251490003197,252.64839410001878,252.653396800044,,,,,,,,,,,,,,,,,,,,,,,,,,,,,,,pilot,001,2026-05-09_22h58.25.245,false_memory_experiment,,2026.1.3,165.0840607711841,2026-05-09 22h58.25.410205 +0300,
2,12:24,5:10,5,5,0,2,tatlı,kek,TR,space,0.79989939997904,None,,,,,,,,,,,,,,,0,5,5,1,0,5,5,5,,,,,,,,,252.653396800044,,,,,,,,,,,,,,,,,252.64930020004977,252.6670001000166,254.1518480000086,254.156466800021,,,,,,,,,,,,,,,,,,,,,,,,,,,,,,,pilot,001,2026-05-09_22h58.25.245,false_memory_experiment,,2026.1.3,165.0840607711841,2026-05-09 22h58.25.410205 +0300,
2,12:24,5:10,6,6,0,2,tatlı,kurabiye,TR,space,0.79989939997904,None,,,,,,,,,,,,,,,0,5,5,1,0,6,6,6,,,,,,,,,254.156466800021,,,,,,,,,,,,,,,,,254.1529145000386,254.1624545000377,255.64865490002558,255.65330540004652,,,,,,,,,,,,,,,,,,,,,,,,,,,,,,,pilot,001,2026-05-09_22h58.25.245,false_memory_experiment,,2026.1.3,165.0840607711841,2026-05-09 22h58.25.410205 +0300,
2,12:24,5:10,7,7,0,2,tatlı,dondurma,TR,space,0.79989939997904,None,,,,,,,,,,,,,,,0,5,5,1,0,7,7,7,,,,,,,,,255.65330540004652,,,,,,,,,,,,,,,,,255.64972099999432,255.66633420001017,257.1514090000419,257.1564017000492,,,,,,,,,,,,,,,,,,,,,,,,,,,,,,,pilot,001,2026-05-09_22h58.25.245,false_memory_experiment,,2026.1.3,165.0840607711841,2026-05-09 22h58.25.410205 +0300,
2,12:24,5:10,8,8,0,2,tatlı,gofret,TR,space,0.79989939997904,None,,,,,,,,,,,,,,,0,5,5,1,0,8,8,8,,,,,,,,,257.1564017000492,,,,,,,,,,,,,,,,,257.1525724999956,257.16243190004025,258.6486639000359,258.6532788000186,,,,,,,,,,,,,,,,,,,,,,,,,,,,,,,pilot,001,2026-05-09_22h58.25.245,false_memory_experiment,,2026.1.3,165.0840607711841,2026-05-09 22h58.25.410205 +0300,
2,12:24,5:10,9,9,0,2,tatlı,lokum,TR,space,0.79989939997904,None,,,,,,,,,,,,,,,0,5,5,1,0,9,9,9,,,,,,,,,258.6532788000186,,,,,,,,,,,,,,,,,258.64968240004964,258.665918600047,260.1519327000133,260.15627600002335,,,,,,,,,,,,,,,,,,,,,,,,,,,,,,,pilot,001,2026-05-09_22h58.25.245,false_memory_experiment,,2026.1.3,165.0840607711841,2026-05-09 22h58.25.410205 +0300,
2,12:24,5:10,10,10,0,2,tatlı,şerbet,TR,space,0.79989939997904,None,,,,,,,,,,,,,,,0,5,5,1,0,10,10,10,,,,,,,,,260.15627600002335,,,,,,,,,,,,,,,,,260.1532972000423,260.16236070002196,261.64851840003394,261.653271600022,,,,,,,,,,,,,,,,,,,,,,,,,,,,,,,pilot,001,2026-05-09_22h58.25.245,false_memory_experiment,,2026.1.3,165.0840607711841,2026-05-09 22h58.25.410205 +0300,
2,12:24,5:10,11,11,0,2,tatlı,meyve,TR,space,0.79989939997904,None,,,,,,,,,,,,,,,0,5,5,1,0,11,11,11,,,,,,,,,261.653271600022,,,,,,,,,,,,,,,,,261.6495557000162,261.66544780001277,263.15125410002656,263.3739959000377,,,,,,,,,,,,,,,,,,,,,,,,,,,,,,,pilot,001,2026-05-09_22h58.25.245,false_memory_experiment,,2026.1.3,165.0840607711841,2026-05-09 22h58.25.410205 +0300,
2,12:24,5:10,0,0,0,,,,,space,0.79989939997904,None,50 - 18 = 32,right,right,1.5002052999916486,None,,,,,,,,,,0,5,5,1,,,,,0,0,0,8,,,,,263.3739959000377,,,,,,,,,,,,,,,,,,,,,263.15243910002755,263.1524719000445,263.36721920000855,263.3739959000377,263.3739959000377,263.3739959000377,264.87867710000137,right,1.5002052999916486,None,,,,,,,,,,,,,,,,,,,,,pilot,001,2026-05-09_22h58.25.245,false_memory_experiment,,2026.1.3,165.0840607711841,2026-05-09 22h58.25.410205 +0300,
2,12:24,5:10,1,1,0,,,,,space,0.79989939997904,None,13 + 14 = 26,left,left,0.7982414999860339,None,,,,,,,,,,0,5,5,1,,,,,0,1,1,29,,,,,264.8841149000218,,,,,,,,,,,,,,,,,,,,,,,264.8801101000281,264.8841149000218,264.8841149000218,264.8841149000218,265.6850375000504,left,0.7982414999860339,None,,,,,,,,,,,,,,,,,,,,,pilot,001,2026-05-09_22h58.25.245,false_memory_experiment,,2026.1.3,165.0840607711841,2026-05-09 22h58.25.410205 +0300,
2,12:24,5:10,2,2,0,,,,,space,0.79989939997904,None,30 + 44 = 73,left,left,1.1045597000047565,None,,,,,,,,,,0,5,5,1,,,,,0,2,2,25,,,,,265.68958800000837,,,,,,,,,,,,,,,,,,,,,,,265.68638010002906,265.68958800000837,265.68958800000837,265.68958800000837,266.7998317000456,left,1.1045597000047565,None,,,,,,,,,,,,,,,,,,,,,pilot,001,2026-05-09_22h58.25.245,false_memory_experiment,,2026.1.3,165.0840607711841,2026-05-09 22h58.25.410205 +0300,
2,12:24,5:10,3,3,0,,,,,space,0.79989939997904,None,32 + 41 = 70,left,left,0.8534598999540322,None,,,,,,,,,,0,5,5,1,,,,,0,3,3,34,,,,,266.8047093000496,,,,,,,,,,,,,,,,,,,,,,,266.8011786999996,266.8047093000496,266.8047093000496,266.8047093000496,267.6621771000209,left,0.8534598999540322,None,,,,,,,,,,,,,,,,,,,,,pilot,001,2026-05-09_22h58.25.245,false_memory_experiment,,2026.1.3,165.0840607711841,2026-05-09 22h58.25.410205 +0300,
2,12:24,5:10,4,4,0,,,,,space,0.79989939997904,None,44 + 5 = 49,right,right,0.9877374999923632,None,,,,,,,,,,0,5,5,1,,,,,0,4,4,16,,,,,267.6707208000007,,,,,,,,,,,,,,,,,,,,,,,267.66352500003995,267.6707208000007,267.6707208000007,267.6707208000007,268.6604567000177,right,0.9877374999923632,None,,,,,,,,,,,,,,,,,,,,,pilot,001,2026-05-09_22h58.25.245,false_memory_experiment,,2026.1.3,165.0840607711841,2026-05-09 22h58.25.410205 +0300,
2,12:24,5:10,5,5,0,,,,,space,0.79989939997904,None,40 - 22 = 19,left,left,0.9286992999841459,None,,,,,,,,,,0,5,5,1,,,,,0,5,5,24,,,,,268.6653929000022,,,,,,,,,,,,,,,,,,,,,,,268.6618209000444,268.6653929000022,268.6653929000022,268.6653929000022,269.59974040003726,left,0.9286992999841459,None,,,,,,,,,,,,,,,,,,,,,pilot,001,2026-05-09_22h58.25.245,false_memory_experiment,,2026.1.3,165.0840607711841,2026-05-09 22h58.25.410205 +0300,
2,12:24,5:10,6,6,0,,,,,space,0.79989939997904,None,19 + 11 = 30,right,right,0.7413206999772228,None,,,,,,,,,,0,5,5,1,,,,,0,6,6,33,,,,,269.6049735000124,,,,,,,,,,,,,,,,,,,,,,,269.60122240002966,269.6049735000124,269.6049735000124,269.6049735000124,270.3514290000312,right,0.7413206999772228,None,,,,,,,,,,,,,,,,,,,,,pilot,001,2026-05-09_22h58.25.245,false_memory_experiment,,2026.1.3,165.0840607711841,2026-05-09 22h58.25.410205 +0300,
2,12:24,5:10,7,7,0,,,,,space,0.79989939997904,None,18 + 6 = 24,right,right,0.9260568000026979,None,,,,,,,,,,0,5,5,1,,,,,0,7,7,18,,,,,270.3562998000416,,,,,,,,,,,,,,,,,,,,,,,270.35275330004515,270.3562998000416,270.3562998000416,270.3562998000416,271.2848190999939,right,0.9260568000026979,None,,,,,,,,,,,,,,,,,,,,,pilot,001,2026-05-09_22h58.25.245,false_memory_experiment,,2026.1.3,165.0840607711841,2026-05-09 22h58.25.410205 +0300,
2,12:24,5:10,8,8,0,,,,,space,0.79989939997904,None,37 + 41 = 78,right,right,1.2645779000013135,None,,,,,,,,,,0,5,5,1,,,,,0,8,8,20,,,,,271.28951080003753,,,,,,,,,,,,,,,,,,,,,,,271.2861492999946,271.28951080003753,271.28951080003753,271.28951080003753,272.5573118000175,right,1.2645779000013135,None,,,,,,,,,,,,,,,,,,,,,pilot,001,2026-05-09_22h58.25.245,false_memory_experiment,,2026.1.3,165.0840607711841,2026-05-09 22h58.25.410205 +0300,
2,12:24,5:10,9,9,0,,,,,space,0.79989939997904,None,5 + 6 = 6,left,left,0.7681500000180677,None,,,,,,,,,,0,5,5,1,,,,,0,9,9,13,,,,,272.5621562000015,,,,,,,,,,,,,,,,,,,,,,,272.5586510000285,272.5621562000015,272.5621562000015,272.5621562000015,273.33396770001855,left,0.7681500000180677,None,,,,,,,,,,,,,,,,,,,,,pilot,001,2026-05-09_22h58.25.245,false_memory_experiment,,2026.1.3,165.0840607711841,2026-05-09 22h58.25.410205 +0300,
2,12:24,5:10,10,10,0,,,,,space,0.79989939997904,None,24 + 8 = 32,right,right,0.646883399982471,None,,,,,,,,,,0,5,5,1,,,,,0,10,10,14,,,,,273.33917460002704,,,,,,,,,,,,,,,,,,,,,,,273.3353877000045,273.33917460002704,273.33917460002704,273.33917460002704,273.98753860004945,right,0.646883399982471,None,,,,,,,,,,,,,,,,,,,,,pilot,001,2026-05-09_22h58.25.245,false_memory_experiment,,2026.1.3,165.0840607711841,2026-05-09 22h58.25.410205 +0300,
2,12:24,5:10,11,11,0,,,,,space,0.79989939997904,None,35 - 26 = 7,left,left,0.8256930999923497,None,,,,,,,,,,0,5,5,1,,,,,0,11,11,17,,,,,273.9924951000139,,,,,,,,,,,,,,,,,,,,,,,273.98887410003226,273.9924951000139,273.9924951000139,273.9924951000139,274.82425280002644,left,0.8256930999923497,None,,,,,,,,,,,,,,,,,,,,,pilot,001,2026-05-09_22h58.25.245,false_memory_experiment,,2026.1.3,165.0840607711841,2026-05-09 22h58.25.410205 +0300,
2,12:24,5:10,12,12,0,,,,,space,0.79989939997904,None,19 - 15 = 3,left,left,1.0054421999957412,None,,,,,,,,,,0,5,5,1,,,,,0,12,12,7,,,,,274.8287740999949,,,,,,,,,,,,,,,,,,,,,,,274.8256920000422,274.8287740999949,274.8287740999949,274.8287740999949,275.8359460000065,left,1.0054421999957412,None,,,,,,,,,,,,,,,,,,,,,pilot,001,2026-05-09_22h58.25.245,false_memory_experiment,,2026.1.3,165.0840607711841,2026-05-09 22h58.25.410205 +0300,
2,12:24,5:10,13,13,0,,,,,space,0.79989939997904,None,19 + 33 = 53,left,left,1.0488863000064157,None,,,,,,,,,,0,5,5,1,,,,,0,13,13,4,,,,,275.84129870001925,,,,,,,,,,,,,,,,,,,,,,,275.83739610004704,275.84129870001925,275.84129870001925,275.84129870001925,276.89662940002745,left,1.0488863000064157,None,,,,,,,,,,,,,,,,,,,,,pilot,001,2026-05-09_22h58.25.245,false_memory_experiment,,2026.1.3,165.0840607711841,2026-05-09 22h58.25.410205 +0300,
2,12:24,5:10,14,14,0,,,,,space,0.79989939997904,None,11 + 10 = 21,right,right,0.748425199999474,None,,,,,,,,,,0,5,5,1,,,,,0,14,14,19,,,,,276.90170510002645,,,,,,,,,,,,,,,,,,,,,,,276.89803300000494,276.90170510002645,276.90170510002645,276.90170510002645,277.65408150001895,right,0.748425199999474,None,,,,,,,,,,,,,,,,,,,,,pilot,001,2026-05-09_22h58.25.245,false_memory_experiment,,2026.1.3,165.0840607711841,2026-05-09 22h58.25.410205 +0300,
2,12:24,5:10,15,15,0,,,,,space,0.79989939997904,None,38 - 28 = 10,right,None,,,,,,,,,,,,0,5,5,1,,,,,0,15,15,32,,,,,277.65908010001294,,,,,,,,,,,,,,,,,,,,,,,277.6553944000043,277.65908010001294,277.65908010001294,277.65908010001294,278.16134809999494,None,,,,,,,,,,,,,,,,,,,,,,,pilot,001,2026-05-09_22h58.25.245,false_memory_experiment,,2026.1.3,165.0840607711841,2026-05-09 22h58.25.410205 +0300,
2,12:24,5:10,0,0,0,2,,,TR,space,0.79989939997904,None,,left,,,,saat,distractor,space,0.9467441999586299,None,left,1,4.525145799969323,None,0,5,5,1,,,,,,,,,0,0,0,3,279.1250293000485,,,,,,,,,,,,,,,,,,,,,,,,,,,,,,,278.1628939000075,278.1674692000379,278.1674692000379,279.11478980001993,space,0.9467441999586299,None,279.121265600028,279.1250293000485,279.1250293000485,279.1250293000485,283.65398290002486,left,1,4.525145799969323,None,,,,,pilot,001,2026-05-09_22h58.25.245,false_memory_experiment,,2026.1.3,165.0840607711841,2026-05-09 22h58.25.410205 +0300,
2,12:24,5:10,1,1,0,2,,,TR,space,0.79989939997904,None,,left,,,,kalem,distractor,space,0.9467441999586299,None,left,1,0.7510784000041895,None,0,5,5,1,,,,,,,,,0,1,1,2,283.65898980002385,,,,,,,,,,,,,,,,,,,,,,,,,,,,,,,,,,,,,,283.65500850003446,283.65898980002385,283.65898980002385,283.65898980002385,284.41156640002737,left,1,0.7510784000041895,None,,,,,pilot,001,2026-05-09_22h58.25.245,false_memory_experiment,,2026.1.3,165.0840607711841,2026-05-09 22h58.25.410205 +0300,
2,12:24,5:10,2,2,0,2,,,TR,space,0.79989939997904,None,,left,,,,tatlı,critical_lure,space,0.9467441999586299,None,right,0,0.5774591999943368,None,0,5,5,1,,,,,,,,,0,2,2,4,284.4166002999991,,,,,,,,,,,,,,,,,,,,,,,,,,,,,,,,,,,,,,284.41258950001793,284.4166002999991,284.4166002999991,284.4166002999991,284.99607450002804,right,0,0.5774591999943368,None,,,,,pilot,001,2026-05-09_22h58.25.245,false_memory_experiment,,2026.1.3,165.0840607711841,2026-05-09 22h58.25.410205 +0300,
2,12:24,5:10,3,3,0,2,,,TR,space,0.79989939997904,None,,right,,,,bal,old,space,0.9467441999586299,None,right,1,0.5184293000493199,None,0,5,5,1,,,,,,,,,0,3,3,1,285.00374160002684,,,,,,,,,,,,,,,,,,,,,,,,,,,,,,,,,,,,,,284.99700020003365,285.00374160002684,285.00374160002684,285.00374160002684,285.5267477000016,right,1,0.5184293000493199,None,,,,,pilot,001,2026-05-09_22h58.25.245,false_memory_experiment,,2026.1.3,165.0840607711841,2026-05-09 22h58.25.410205 +0300,
2,12:24,5:10,4,4,0,2,,,TR,space,0.79989939997904,None,,right,,,,şeker,old,space,0.9467441999586299,None,right,1,0.5744012999930419,None,0,5,5,1,,,,,,,,,0,4,4,0,285.5316756000393,,,,,,,,,,,,,,,,,,,,,,,,,,,,,,,,,,,,,,285.52777800004696,285.5316756000393,285.5316756000393,285.5316756000393,286.108623200038,right,1,0.5744012999930419,None,,,,,pilot,001,2026-05-09_22h58.25.245,false_memory_experiment,,2026.1.3,165.0840607711841,2026-05-09 22h58.25.410205 +0300,
2,12:24,5:10,5,5,0,,,,,space,0.79989939997904,None,,,,,,,,space,0.9467441999586299,None,,,,,0,5,5,1,,,,,,,,,,,,,,,,,,,,,,,,,,,,,,,,,,,,,,,,,,,,,,,,,,,,,,,,,,,,,,,,pilot,001,2026-05-09_22h58.25.245,false_memory_experiment,,2026.1.3,165.0840607711841,2026-05-09 22h58.25.410205 +0300,
,,,,,,,,,,,,,,,,,,,,,,,,,,,,,,,,,,,,,,,,,,,,,,,,,,,,,,,,,,,,,,,,,,,,,,,,,,,,,,,,,,,,,,,,,,286.10968510003295,286.1146645999979,289.1073821000173,289.1024869999965,pilot,001,2026-05-09_22h58.25.245,false_memory_experiment,,2026.1.3,165.0840607711841,2026-05-09 22h58.25.410205 +0300,
