instructions.started,instructions.stopped,key_resp_instr.keys,key_resp_instr.rt,key_resp_instr.duration,participant,session,date,expName,psychopyVersion,OS,frameRate,start_set.started,start_set.stopped,key_resp_start_set.keys,key_resp_start_set.rt,key_resp_start_set.duration,study.started,study.stopped,study_loop.thisRepN,study_loop.thisTrialN,study_loop.thisN,study_loop.thisIndex,study_loop.ran,list_id,theme,study_word,language,timer.started,timer.stopped,distractor.started,distractor.stopped,key_resp.keys,key_resp.rt,key_resp.duration,distractor_loop.thisRepN,distractor_loop.thisTrialN,distractor_loop.thisN,distractor_loop.thisIndex,distractor_loop.ran,problem,correct_resp,start_test.started,start_test.stopped,key_resp_start_test.keys,key_resp_start_test.rt,key_resp_start_test.duration,test.started,test.stopped,key_resp_test.keys,key_resp_test.corr,key_resp_test.rt,key_resp_test.duration,test_loop.thisRepN,test_loop.thisTrialN,test_loop.thisN,test_loop.thisIndex,test_loop.ran,test_word,word_type,blocks_loop.thisRepN,blocks_loop.thisTrialN,blocks_loop.thisN,blocks_loop.thisIndex,blocks_loop.ran,block_id,study_rows,test_rows,end.started,end.stopped
0.001,28.853,space,28.82,,sonat,001,2026-05-11_16h56.29.506,false_memory_experiment,2026.1.3,Win32,143.6781609,,,,,,,,,,,,,,,,,,,,,,,,,,,,,,,,,,,,,,,,,,,,,,,,,,,,,,,,,,
,,,,,sonat,001,2026-05-11_16h56.29.506,false_memory_experiment,2026.1.3,Win32,143.6781609,28.862,31.457,space,2.574,,31.469,32.956,0,0,0,0,1,5,sweet,sugar,EN,,,,,,,,,,,,,,,,,,,,,,,,,,,,,,,,,,,,,,,,,,
,,,,,sonat,001,2026-05-11_16h56.29.506,false_memory_experiment,2026.1.3,Win32,143.6781609,,,,,,32.957,34.457,0,1,1,1,1,5,sweet,candy,EN,,,,,,,,,,,,,,,,,,,,,,,,,,,,,,,,,,,,,,,,,,
,,,,,sonat,001,2026-05-11_16h56.29.506,false_memory_experiment,2026.1.3,Win32,143.6781609,,,,,,34.458,35.957,0,2,2,2,1,5,sweet,sour,EN,,,,,,,,,,,,,,,,,,,,,,,,,,,,,,,,,,,,,,,,,,
,,,,,sonat,001,2026-05-11_16h56.29.506,false_memory_experiment,2026.1.3,Win32,143.6781609,,,,,,35.957,37.457,0,3,3,3,1,5,sweet,bitter,EN,,,,,,,,,,,,,,,,,,,,,,,,,,,,,,,,,,,,,,,,,,
,,,,,sonat,001,2026-05-11_16h56.29.506,false_memory_experiment,2026.1.3,Win32,143.6781609,,,,,,37.458,38.956,0,4,4,4,1,5,sweet,chocolate,EN,,,,,,,,,,,,,,,,,,,,,,,,,,,,,,,,,,,,,,,,,,
,,,,,sonat,001,2026-05-11_16h56.29.506,false_memory_experiment,2026.1.3,Win32,143.6781609,,,,,,38.957,40.457,0,5,5,5,1,5,sweet,taste,EN,,,,,,,,,,,,,,,,,,,,,,,,,,,,,,,,,,,,,,,,,,
,,,,,sonat,001,2026-05-11_16h56.29.506,false_memory_experiment,2026.1.3,Win32,143.6781609,,,,,,40.457,41.957,0,6,6,6,1,5,sweet,honey,EN,,,,,,,,,,,,,,,,,,,,,,,,,,,,,,,,,,,,,,,,,,
,,,,,sonat,001,2026-05-11_16h56.29.506,false_memory_experiment,2026.1.3,Win32,143.6781609,,,,,,41.957,43.457,0,7,7,7,1,5,sweet,cake,EN,,,,,,,,,,,,,,,,,,,,,,,,,,,,,,,,,,,,,,,,,,
,,,,,sonat,001,2026-05-11_16h56.29.506,false_memory_experiment,2026.1.3,Win32,143.6781609,,,,,,43.458,44.957,0,8,8,8,1,5,sweet,cookie,EN,,,,,,,,,,,,,,,,,,,,,,,,,,,,,,,,,,,,,,,,,,
,,,,,sonat,001,2026-05-11_16h56.29.506,false_memory_experiment,2026.1.3,Win32,143.6781609,,,,,,44.958,46.456,0,9,9,9,1,5,sweet,dessert,EN,,,,,,,,,,,,,,,,,,,,,,,,,,,,,,,,,,,,,,,,,,
,,,,,sonat,001,2026-05-11_16h56.29.506,false_memory_experiment,2026.1.3,Win32,143.6781609,,,,,,46.458,47.957,0,10,10,10,1,5,sweet,pie,EN,,,,,,,,,,,,,,,,,,,,,,,,,,,,,,,,,,,,,,,,,,
,,,,,sonat,001,2026-05-11_16h56.29.506,false_memory_experiment,2026.1.3,Win32,143.6781609,,,,,,47.958,49.457,0,11,11,11,1,5,sweet,waffle,EN,,,,,,,,,,,,,,,,,,,,,,,,,,,,,,,,,,,,,,,,,,
,,,,,sonat,001,2026-05-11_16h56.29.506,false_memory_experiment,2026.1.3,Win32,143.6781609,,,,,,,,,,,,,,,,,49.457,49.457,49.58,56.749,left,7.14,,0,0,0,24,1,40 - 22 = 19,left,,,,,,,,,,,,,,,,,,,,,,,,,,,,
,,,,,sonat,001,2026-05-11_16h56.29.506,false_memory_experiment,2026.1.3,Win32,143.6781609,,,,,,,,,,,,,,,,,,,56.75,58.305,left,1.535,,0,1,1,29,1,13 + 14 = 26,left,,,,,,,,,,,,,,,,,,,,,,,,,,,,
,,,,,sonat,001,2026-05-11_16h56.29.506,false_memory_experiment,2026.1.3,Win32,143.6781609,,,,,,,,,,,,,,,,,,,58.305,60.291,right,1.973,,0,2,2,8,1,50 - 18 = 32,right,,,,,,,,,,,,,,,,,,,,,,,,,,,,
,,,,,sonat,001,2026-05-11_16h56.29.506,false_memory_experiment,2026.1.3,Win32,143.6781609,,,,,,,,,,,,,,,,,,,60.291,62.784,left,2.475,,0,3,3,36,1,28 + 42 = 69,left,,,,,,,,,,,,,,,,,,,,,,,,,,,,
,,,,,sonat,001,2026-05-11_16h56.29.506,false_memory_experiment,2026.1.3,Win32,143.6781609,,,,,,,,,,,,,,,,,,,62.787,64.459,,,,0,4,4,14,1,24 + 8 = 32,right,,,,,,,,,,,,,,,,,,,,,,,,,,,,
,,,,,sonat,001,2026-05-11_16h56.29.506,false_memory_experiment,2026.1.3,Win32,143.6781609,,,,,,,,,,,,,5,,,EN,,,,,,,,,,,,,,left,64.459,67.666,space,3.197,,67.675,70.159,left,1,2.461,,0,0,0,4,1,sweet,critical_lure,,,,,,,,,,
,,,,,sonat,001,2026-05-11_16h56.29.506,false_memory_experiment,2026.1.3,Win32,143.6781609,,,,,,,,,,,,,5,,,EN,,,,,,,,,,,,,,left,,,,,,70.16,73.187,left,1,3.023,,0,1,1,2,1,pen,distractor,,,,,,,,,,
,,,,,sonat,001,2026-05-11_16h56.29.506,false_memory_experiment,2026.1.3,Win32,143.6781609,,,,,,,,,,,,,5,,,EN,,,,,,,,,,,,,,left,,,,,,73.188,74.215,left,1,1.018,,0,2,2,3,1,phone,distractor,,,,,,,,,,
,,,,,sonat,001,2026-05-11_16h56.29.506,false_memory_experiment,2026.1.3,Win32,143.6781609,,,,,,,,,,,,,5,,,EN,,,,,,,,,,,,,,right,,,,,,74.216,96.666,right,1,22.446,,0,3,3,0,1,sugar,old,,,,,,,,,,
,,,,,sonat,001,2026-05-11_16h56.29.506,false_memory_experiment,2026.1.3,Win32,143.6781609,,,,,,,,,,,,,5,,,EN,,,,,,,,,,,,,,right,,,,,,96.669,97.43,right,1,0.753,,0,4,4,1,1,honey,old,,,,,,,,,,
,,,,,sonat,001,2026-05-11_16h56.29.506,false_memory_experiment,2026.1.3,Win32,143.6781609,,,,,,,,,,,,,,,,,,,,,,,,,,,,,,,,,,,,,,,,,,,,,,,,,0,0,0,4,1,5,48:60,20:25,,
,,,,,sonat,001,2026-05-11_16h56.29.506,false_memory_experiment,2026.1.3,Win32,143.6781609,97.431,98.819,space,1.376,,98.83,100.319,0,0,0,0,1,1,uyku,yatak,TR,,,,,,,,,,,,,,,,,,,,,,,,,,,,,,,,,,,,,,,,,,
,,,,,sonat,001,2026-05-11_16h56.29.506,false_memory_experiment,2026.1.3,Win32,143.6781609,,,,,,100.321,101.819,0,1,1,1,1,1,uyku,rüya,TR,,,,,,,,,,,,,,,,,,,,,,,,,,,,,,,,,,,,,,,,,,
,,,,,sonat,001,2026-05-11_16h56.29.506,false_memory_experiment,2026.1.3,Win32,143.6781609,,,,,,101.82,103.319,0,2,2,2,1,1,uyku,yastık,TR,,,,,,,,,,,,,,,,,,,,,,,,,,,,,,,,,,,,,,,,,,
,,,,,sonat,001,2026-05-11_16h56.29.506,false_memory_experiment,2026.1.3,Win32,143.6781609,,,,,,103.319,104.819,0,3,3,3,1,1,uyku,gece,TR,,,,,,,,,,,,,,,,,,,,,,,,,,,,,,,,,,,,,,,,,,
,,,,,sonat,001,2026-05-11_16h56.29.506,false_memory_experiment,2026.1.3,Win32,143.6781609,,,,,,104.82,106.319,0,4,4,4,1,1,uyku,yorgan,TR,,,,,,,,,,,,,,,,,,,,,,,,,,,,,,,,,,,,,,,,,,
,,,,,sonat,001,2026-05-11_16h56.29.506,false_memory_experiment,2026.1.3,Win32,143.6781609,,,,,,106.319,107.818,0,5,5,5,1,1,uyku,battaniye,TR,,,,,,,,,,,,,,,,,,,,,,,,,,,,,,,,,,,,,,,,,,
,,,,,sonat,001,2026-05-11_16h56.29.506,false_memory_experiment,2026.1.3,Win32,143.6781609,,,,,,107.82,109.319,0,6,6,6,1,1,uyku,dinlenmek,TR,,,,,,,,,,,,,,,,,,,,,,,,,,,,,,,,,,,,,,,,,,
,,,,,sonat,001,2026-05-11_16h56.29.506,false_memory_experiment,2026.1.3,Win32,143.6781609,,,,,,109.32,110.819,0,7,7,7,1,1,uyku,horlamak,TR,,,,,,,,,,,,,,,,,,,,,,,,,,,,,,,,,,,,,,,,,,
,,,,,sonat,001,2026-05-11_16h56.29.506,false_memory_experiment,2026.1.3,Win32,143.6781609,,,,,,110.82,112.319,0,8,8,8,1,1,uyku,pijama,TR,,,,,,,,,,,,,,,,,,,,,,,,,,,,,,,,,,,,,,,,,,
,,,,,sonat,001,2026-05-11_16h56.29.506,false_memory_experiment,2026.1.3,Win32,143.6781609,,,,,,112.32,113.819,0,9,9,9,1,1,uyku,yorgun,TR,,,,,,,,,,,,,,,,,,,,,,,,,,,,,,,,,,,,,,,,,,
,,,,,sonat,001,2026-05-11_16h56.29.506,false_memory_experiment,2026.1.3,Win32,143.6781609,,,,,,113.82,115.319,0,10,10,10,1,1,uyku,karanlık,TR,,,,,,,,,,,,,,,,,,,,,,,,,,,,,,,,,,,,,,,,,,
,,,,,sonat,001,2026-05-11_16h56.29.506,false_memory_experiment,2026.1.3,Win32,143.6781609,,,,,,115.319,116.819,0,11,11,11,1,1,uyku,lamba,TR,,,,,,,,,,,,,,,,,,,,,,,,,,,,,,,,,,,,,,,,,,
,,,,,sonat,001,2026-05-11_16h56.29.506,false_memory_experiment,2026.1.3,Win32,143.6781609,,,,,,,,,,,,,,,,,116.819,116.819,116.938,119.333,left,2.381,,0,0,0,36,1,28 + 42 = 69,left,,,,,,,,,,,,,,,,,,,,,,,,,,,,
,,,,,sonat,001,2026-05-11_16h56.29.506,false_memory_experiment,2026.1.3,Win32,143.6781609,,,,,,,,,,,,,,,,,,,119.333,123.215,left,3.858,,0,1,1,3,1,25 + 28 = 50,left,,,,,,,,,,,,,,,,,,,,,,,,,,,,
,,,,,sonat,001,2026-05-11_16h56.29.506,false_memory_experiment,2026.1.3,Win32,143.6781609,,,,,,,,,,,,,,,,,,,123.216,125.027,right,1.793,,0,2,2,33,1,19 + 11 = 30,right,,,,,,,,,,,,,,,,,,,,,,,,,,,,
,,,,,sonat,001,2026-05-11_16h56.29.506,false_memory_experiment,2026.1.3,Win32,143.6781609,,,,,,,,,,,,,,,,,,,125.028,126.257,left,1.212,,0,3,3,28,1,17 - 13 = -1,left,,,,,,,,,,,,,,,,,,,,,,,,,,,,
,,,,,sonat,001,2026-05-11_16h56.29.506,false_memory_experiment,2026.1.3,Win32,143.6781609,,,,,,,,,,,,,,,,,,,126.26,128.479,left,2.201,,0,4,4,31,1,39 + 49 = 93,left,,,,,,,,,,,,,,,,,,,,,,,,,,,,
,,,,,sonat,001,2026-05-11_16h56.29.506,false_memory_experiment,2026.1.3,Win32,143.6781609,,,,,,,,,,,,,,,,,,,128.481,130.618,left,2.12,,0,5,5,4,1,19 + 33 = 53,left,,,,,,,,,,,,,,,,,,,,,,,,,,,,
,,,,,sonat,001,2026-05-11_16h56.29.506,false_memory_experiment,2026.1.3,Win32,143.6781609,,,,,,,,,,,,,,,,,,,130.619,131.829,,,,0,6,6,37,1,22 - 16 = 6,right,,,,,,,,,,,,,,,,,,,,,,,,,,,,
,,,,,sonat,001,2026-05-11_16h56.29.506,false_memory_experiment,2026.1.3,Win32,143.6781609,,,,,,,,,,,,,1,,,TR,,,,,,,,,,,,,,right,131.829,134.673,space,2.832,,134.684,136.666,right,1,1.956,,0,0,0,0,1,yatak,old,,,,,,,,,,
,,,,,sonat,001,2026-05-11_16h56.29.506,false_memory_experiment,2026.1.3,Win32,143.6781609,,,,,,,,,,,,,1,,,TR,,,,,,,,,,,,,,left,,,,,,136.668,137.549,left,1,0.876,,0,1,1,2,1,sandalye,distractor,,,,,,,,,,
,,,,,sonat,001,2026-05-11_16h56.29.506,false_memory_experiment,2026.1.3,Win32,143.6781609,,,,,,,,,,,,,1,,,TR,,,,,,,,,,,,,,left,,,,,,137.549,138.257,right,0,0.699,,0,2,2,4,1,uyku,critical_lure,,,,,,,,,,
,,,,,sonat,001,2026-05-11_16h56.29.506,false_memory_experiment,2026.1.3,Win32,143.6781609,,,,,,,,,,,,,1,,,TR,,,,,,,,,,,,,,right,,,,,,138.257,138.896,right,1,0.633,,0,3,3,1,1,lamba,old,,,,,,,,,,
,,,,,sonat,001,2026-05-11_16h56.29.506,false_memory_experiment,2026.1.3,Win32,143.6781609,,,,,,,,,,,,,1,,,TR,,,,,,,,,,,,,,left,,,,,,138.897,139.542,left,1,0.637,,0,4,4,3,1,araba,distractor,,,,,,,,,,
,,,,,sonat,001,2026-05-11_16h56.29.506,false_memory_experiment,2026.1.3,Win32,143.6781609,,,,,,,,,,,,,,,,,,,,,,,,,,,,,,,,,,,,,,,,,,,,,,,,,0,1,1,0,1,1,0:12,0:5,,
,,,,,sonat,001,2026-05-11_16h56.29.506,false_memory_experiment,2026.1.3,Win32,143.6781609,139.542,140.903,space,1.34,,140.909,142.403,0,0,0,0,1,6,cold,snow,EN,,,,,,,,,,,,,,,,,,,,,,,,,,,,,,,,,,,,,,,,,,
,,,,,sonat,001,2026-05-11_16h56.29.506,false_memory_experiment,2026.1.3,Win32,143.6781609,,,,,,142.404,143.902,0,1,1,1,1,6,cold,ice,EN,,,,,,,,,,,,,,,,,,,,,,,,,,,,,,,,,,,,,,,,,,
,,,,,sonat,001,2026-05-11_16h56.29.506,false_memory_experiment,2026.1.3,Win32,143.6781609,,,,,,143.904,145.403,0,2,2,2,1,6,cold,winter,EN,,,,,,,,,,,,,,,,,,,,,,,,,,,,,,,,,,,,,,,,,,
,,,,,sonat,001,2026-05-11_16h56.29.506,false_memory_experiment,2026.1.3,Win32,143.6781609,,,,,,145.404,146.903,0,3,3,3,1,6,cold,storm,EN,,,,,,,,,,,,,,,,,,,,,,,,,,,,,,,,,,,,,,,,,,
,,,,,sonat,001,2026-05-11_16h56.29.506,false_memory_experiment,2026.1.3,Win32,143.6781609,,,,,,146.904,148.403,0,4,4,4,1,6,cold,shiver,EN,,,,,,,,,,,,,,,,,,,,,,,,,,,,,,,,,,,,,,,,,,
,,,,,sonat,001,2026-05-11_16h56.29.506,false_memory_experiment,2026.1.3,Win32,143.6781609,,,,,,148.403,149.902,0,5,5,5,1,6,cold,arctic,EN,,,,,,,,,,,,,,,,,,,,,,,,,,,,,,,,,,,,,,,,,,
,,,,,sonat,001,2026-05-11_16h56.29.506,false_memory_experiment,2026.1.3,Win32,143.6781609,,,,,,149.903,151.403,0,6,6,6,1,6,cold,weather,EN,,,,,,,,,,,,,,,,,,,,,,,,,,,,,,,,,,,,,,,,,,
,,,,,sonat,001,2026-05-11_16h56.29.506,false_memory_experiment,2026.1.3,Win32,143.6781609,,,,,,151.404,152.903,0,7,7,7,1,6,cold,freeze,EN,,,,,,,,,,,,,,,,,,,,,,,,,,,,,,,,,,,,,,,,,,
,,,,,sonat,001,2026-05-11_16h56.29.506,false_memory_experiment,2026.1.3,Win32,143.6781609,,,,,,152.904,154.403,0,8,8,8,1,6,cold,chill,EN,,,,,,,,,,,,,,,,,,,,,,,,,,,,,,,,,,,,,,,,,,
,,,,,sonat,001,2026-05-11_16h56.29.506,false_memory_experiment,2026.1.3,Win32,143.6781609,,,,,,154.404,155.903,0,9,9,9,1,6,cold,frost,EN,,,,,,,,,,,,,,,,,,,,,,,,,,,,,,,,,,,,,,,,,,
,,,,,sonat,001,2026-05-11_16h56.29.506,false_memory_experiment,2026.1.3,Win32,143.6781609,,,,,,155.904,157.403,0,10,10,10,1,6,cold,coat,EN,,,,,,,,,,,,,,,,,,,,,,,,,,,,,,,,,,,,,,,,,,
,,,,,sonat,001,2026-05-11_16h56.29.506,false_memory_experiment,2026.1.3,Win32,143.6781609,,,,,,157.403,158.903,0,11,11,11,1,6,cold,gloves,EN,,,,,,,,,,,,,,,,,,,,,,,,,,,,,,,,,,,,,,,,,,
,,,,,sonat,001,2026-05-11_16h56.29.506,false_memory_experiment,2026.1.3,Win32,143.6781609,,,,,,,,,,,,,,,,,158.903,158.903,159.037,161.938,left,2.879,,0,0,0,2,1,46 - 24 = 25,left,,,,,,,,,,,,,,,,,,,,,,,,,,,,
,,,,,sonat,001,2026-05-11_16h56.29.506,false_memory_experiment,2026.1.3,Win32,143.6781609,,,,,,,,,,,,,,,,,,,161.938,163.084,left,1.126,,0,1,1,4,1,19 + 33 = 53,left,,,,,,,,,,,,,,,,,,,,,,,,,,,,
,,,,,sonat,001,2026-05-11_16h56.29.506,false_memory_experiment,2026.1.3,Win32,143.6781609,,,,,,,,,,,,,,,,,,,163.084,164.195,left,1.095,,0,2,2,28,1,17 - 13 = -1,left,,,,,,,,,,,,,,,,,,,,,,,,,,,,
,,,,,sonat,001,2026-05-11_16h56.29.506,false_memory_experiment,2026.1.3,Win32,143.6781609,,,,,,,,,,,,,,,,,,,164.199,165.223,left,1.017,,0,3,3,22,1,17 - 7 = 11,left,,,,,,,,,,,,,,,,,,,,,,,,,,,,
,,,,,sonat,001,2026-05-11_16h56.29.506,false_memory_experiment,2026.1.3,Win32,143.6781609,,,,,,,,,,,,,,,,,,,165.224,166.563,left,1.32,,0,4,4,3,1,25 + 28 = 50,left,,,,,,,,,,,,,,,,,,,,,,,,,,,,
,,,,,sonat,001,2026-05-11_16h56.29.506,false_memory_experiment,2026.1.3,Win32,143.6781609,,,,,,,,,,,,,,,,,,,166.563,167.91,left,1.339,,0,5,5,24,1,40 - 22 = 19,left,,,,,,,,,,,,,,,,,,,,,,,,,,,,
,,,,,sonat,001,2026-05-11_16h56.29.506,false_memory_experiment,2026.1.3,Win32,143.6781609,,,,,,,,,,,,,,,,,,,167.911,168.965,left,1.046,,0,6,6,35,1,44 - 7 = 37,right,,,,,,,,,,,,,,,,,,,,,,,,,,,,
,,,,,sonat,001,2026-05-11_16h56.29.506,false_memory_experiment,2026.1.3,Win32,143.6781609,,,,,,,,,,,,,,,,,,,168.966,172.153,right,3.162,,0,7,7,30,1,11 + 17 = 28,right,,,,,,,,,,,,,,,,,,,,,,,,,,,,
,,,,,sonat,001,2026-05-11_16h56.29.506,false_memory_experiment,2026.1.3,Win32,143.6781609,,,,,,,,,,,,,,,,,,,172.154,173.168,left,1.009,,0,8,8,37,1,22 - 16 = 6,right,,,,,,,,,,,,,,,,,,,,,,,,,,,,
,,,,,sonat,001,2026-05-11_16h56.29.506,false_memory_experiment,2026.1.3,Win32,143.6781609,,,,,,,,,,,,,,,,,,,173.168,173.905,,,,0,9,9,9,1,10 + 7 = 17,right,,,,,,,,,,,,,,,,,,,,,,,,,,,,
,,,,,sonat,001,2026-05-11_16h56.29.506,false_memory_experiment,2026.1.3,Win32,143.6781609,,,,,,,,,,,,,6,,,EN,,,,,,,,,,,,,,left,173.905,175.89,space,1.977,,175.9,178.702,left,1,2.789,,0,0,0,3,1,table,distractor,,,,,,,,,,
,,,,,sonat,001,2026-05-11_16h56.29.506,false_memory_experiment,2026.1.3,Win32,143.6781609,,,,,,,,,,,,,6,,,EN,,,,,,,,,,,,,,right,,,,,,178.703,180.022,right,1,1.313,,0,1,1,1,1,gloves,old,,,,,,,,,,
,,,,,sonat,001,2026-05-11_16h56.29.506,false_memory_experiment,2026.1.3,Win32,143.6781609,,,,,,,,,,,,,6,,,EN,,,,,,,,,,,,,,left,,,,,,180.022,181.861,left,1,1.832,,0,2,2,2,1,cup,distractor,,,,,,,,,,
,,,,,sonat,001,2026-05-11_16h56.29.506,false_memory_experiment,2026.1.3,Win32,143.6781609,,,,,,,,,,,,,6,,,EN,,,,,,,,,,,,,,left,,,,,,181.862,182.556,right,0,0.686,,0,3,3,4,1,cold,critical_lure,,,,,,,,,,
,,,,,sonat,001,2026-05-11_16h56.29.506,false_memory_experiment,2026.1.3,Win32,143.6781609,,,,,,,,,,,,,6,,,EN,,,,,,,,,,,,,,right,,,,,,182.556,183.209,right,1,0.649,,0,4,4,0,1,snow,old,,,,,,,,,,
,,,,,sonat,001,2026-05-11_16h56.29.506,false_memory_experiment,2026.1.3,Win32,143.6781609,,,,,,,,,,,,,,,,,,,,,,,,,,,,,,,,,,,,,,,,,,,,,,,,,0,2,2,5,1,6,60:72,25:30,,
,,,,,sonat,001,2026-05-11_16h56.29.506,false_memory_experiment,2026.1.3,Win32,143.6781609,183.209,184.632,space,1.406,,184.639,186.133,0,0,0,0,1,3,soğuk,kış,TR,,,,,,,,,,,,,,,,,,,,,,,,,,,,,,,,,,,,,,,,,,
,,,,,sonat,001,2026-05-11_16h56.29.506,false_memory_experiment,2026.1.3,Win32,143.6781609,,,,,,186.133,187.632,0,1,1,1,1,3,soğuk,buz,TR,,,,,,,,,,,,,,,,,,,,,,,,,,,,,,,,,,,,,,,,,,
,,,,,sonat,001,2026-05-11_16h56.29.506,false_memory_experiment,2026.1.3,Win32,143.6781609,,,,,,187.633,189.133,0,2,2,2,1,3,soğuk,kar,TR,,,,,,,,,,,,,,,,,,,,,,,,,,,,,,,,,,,,,,,,,,
,,,,,sonat,001,2026-05-11_16h56.29.506,false_memory_experiment,2026.1.3,Win32,143.6781609,,,,,,189.133,190.633,0,3,3,3,1,3,soğuk,üşümek,TR,,,,,,,,,,,,,,,,,,,,,,,,,,,,,,,,,,,,,,,,,,
,,,,,sonat,001,2026-05-11_16h56.29.506,false_memory_experiment,2026.1.3,Win32,143.6781609,,,,,,190.634,192.132,0,4,4,4,1,3,soğuk,dondurucu,TR,,,,,,,,,,,,,,,,,,,,,,,,,,,,,,,,,,,,,,,,,,
,,,,,sonat,001,2026-05-11_16h56.29.506,false_memory_experiment,2026.1.3,Win32,143.6781609,,,,,,192.134,193.633,0,5,5,5,1,3,soğuk,ayaz,TR,,,,,,,,,,,,,,,,,,,,,,,,,,,,,,,,,,,,,,,,,,
,,,,,sonat,001,2026-05-11_16h56.29.506,false_memory_experiment,2026.1.3,Win32,143.6781609,,,,,,193.633,195.133,0,6,6,6,1,3,soğuk,titremek,TR,,,,,,,,,,,,,,,,,,,,,,,,,,,,,,,,,,,,,,,,,,
,,,,,sonat,001,2026-05-11_16h56.29.506,false_memory_experiment,2026.1.3,Win32,143.6781609,,,,,,195.136,196.633,0,7,7,7,1,3,soğuk,derece,TR,,,,,,,,,,,,,,,,,,,,,,,,,,,,,,,,,,,,,,,,,,
,,,,,sonat,001,2026-05-11_16h56.29.506,false_memory_experiment,2026.1.3,Win32,143.6781609,,,,,,196.634,198.133,0,8,8,8,1,3,soğuk,hava,TR,,,,,,,,,,,,,,,,,,,,,,,,,,,,,,,,,,,,,,,,,,
,,,,,sonat,001,2026-05-11_16h56.29.506,false_memory_experiment,2026.1.3,Win32,143.6781609,,,,,,198.134,199.633,0,9,9,9,1,3,soğuk,rüzgar,TR,,,,,,,,,,,,,,,,,,,,,,,,,,,,,,,,,,,,,,,,,,
,,,,,sonat,001,2026-05-11_16h56.29.506,false_memory_experiment,2026.1.3,Win32,143.6781609,,,,,,199.634,201.132,0,10,10,10,1,3,soğuk,mont,TR,,,,,,,,,,,,,,,,,,,,,,,,,,,,,,,,,,,,,,,,,,
,,,,,sonat,001,2026-05-11_16h56.29.506,false_memory_experiment,2026.1.3,Win32,143.6781609,,,,,,201.133,202.633,0,11,11,11,1,3,soğuk,eldiven,TR,,,,,,,,,,,,,,,,,,,,,,,,,,,,,,,,,,,,,,,,,,
,,,,,sonat,001,2026-05-11_16h56.29.506,false_memory_experiment,2026.1.3,Win32,143.6781609,,,,,,,,,,,,,,,,,202.633,202.633,202.774,204.459,left,1.667,,0,0,0,4,1,19 + 33 = 53,left,,,,,,,,,,,,,,,,,,,,,,,,,,,,
,,,,,sonat,001,2026-05-11_16h56.29.506,false_memory_experiment,2026.1.3,Win32,143.6781609,,,,,,,,,,,,,,,,,,,204.46,206.418,right,1.928,,0,1,1,20,1,37 + 41 = 78,right,,,,,,,,,,,,,,,,,,,,,,,,,,,,
,,,,,sonat,001,2026-05-11_16h56.29.506,false_memory_experiment,2026.1.3,Win32,143.6781609,,,,,,,,,,,,,,,,,,,206.418,207.689,right,1.262,,0,2,2,38,1,12 - 11 = 1,right,,,,,,,,,,,,,,,,,,,,,,,,,,,,
,,,,,sonat,001,2026-05-11_16h56.29.506,false_memory_experiment,2026.1.3,Win32,143.6781609,,,,,,,,,,,,,,,,,,,207.689,208.799,right,1.105,,0,3,3,37,1,22 - 16 = 6,right,,,,,,,,,,,,,,,,,,,,,,,,,,,,
,,,,,sonat,001,2026-05-11_16h56.29.506,false_memory_experiment,2026.1.3,Win32,143.6781609,,,,,,,,,,,,,,,,,,,208.801,210.077,right,1.259,,0,4,4,8,1,50 - 18 = 32,right,,,,,,,,,,,,,,,,,,,,,,,,,,,,
,,,,,sonat,001,2026-05-11_16h56.29.506,false_memory_experiment,2026.1.3,Win32,143.6781609,,,,,,,,,,,,,,,,,,,210.078,212.119,left,2.026,,0,5,5,26,1,38 - 18 = 19,left,,,,,,,,,,,,,,,,,,,,,,,,,,,,
,,,,,sonat,001,2026-05-11_16h56.29.506,false_memory_experiment,2026.1.3,Win32,143.6781609,,,,,,,,,,,,,,,,,,,212.119,213.397,right,1.27,,0,6,6,14,1,24 + 8 = 32,right,,,,,,,,,,,,,,,,,,,,,,,,,,,,
,,,,,sonat,001,2026-05-11_16h56.29.506,false_memory_experiment,2026.1.3,Win32,143.6781609,,,,,,,,,,,,,,,,,,,213.397,214.286,right,0.875,,0,7,7,19,1,11 + 10 = 21,right,,,,,,,,,,,,,,,,,,,,,,,,,,,,
,,,,,sonat,001,2026-05-11_16h56.29.506,false_memory_experiment,2026.1.3,Win32,143.6781609,,,,,,,,,,,,,,,,,,,214.286,216.849,left,2.544,,0,8,8,11,1,39 - 15 = 26,left,,,,,,,,,,,,,,,,,,,,,,,,,,,,
,,,,,sonat,001,2026-05-11_16h56.29.506,false_memory_experiment,2026.1.3,Win32,143.6781609,,,,,,,,,,,,,,,,,,,216.849,217.635,,,,0,9,9,36,1,28 + 42 = 69,left,,,,,,,,,,,,,,,,,,,,,,,,,,,,
,,,,,sonat,001,2026-05-11_16h56.29.506,false_memory_experiment,2026.1.3,Win32,143.6781609,,,,,,,,,,,,,3,,,TR,,,,,,,,,,,,,,right,217.635,219.078,space,1.427,,219.084,223.453,right,1,4.347,,0,0,0,1,1,mont,old,,,,,,,,,,
,,,,,sonat,001,2026-05-11_16h56.29.506,false_memory_experiment,2026.1.3,Win32,143.6781609,,,,,,,,,,,,,3,,,TR,,,,,,,,,,,,,,left,,,,,,223.453,224.577,right,0,1.119,,0,1,1,4,1,soğuk,critical_lure,,,,,,,,,,
,,,,,sonat,001,2026-05-11_16h56.29.506,false_memory_experiment,2026.1.3,Win32,143.6781609,,,,,,,,,,,,,3,,,TR,,,,,,,,,,,,,,right,,,,,,224.578,225.085,right,1,0.504,,0,2,2,0,1,kış,old,,,,,,,,,,
,,,,,sonat,001,2026-05-11_16h56.29.506,false_memory_experiment,2026.1.3,Win32,143.6781609,,,,,,,,,,,,,3,,,TR,,,,,,,,,,,,,,left,,,,,,225.085,226.071,left,1,0.979,,0,3,3,2,1,bardak,distractor,,,,,,,,,,
,,,,,sonat,001,2026-05-11_16h56.29.506,false_memory_experiment,2026.1.3,Win32,143.6781609,,,,,,,,,,,,,3,,,TR,,,,,,,,,,,,,,left,,,,,,226.071,226.925,left,1,0.847,,0,4,4,3,1,kağıt,distractor,,,,,,,,,,
,,,,,sonat,001,2026-05-11_16h56.29.506,false_memory_experiment,2026.1.3,Win32,143.6781609,,,,,,,,,,,,,,,,,,,,,,,,,,,,,,,,,,,,,,,,,,,,,,,,,0,3,3,2,1,3,24:36,10:15,,
,,,,,sonat,001,2026-05-11_16h56.29.506,false_memory_experiment,2026.1.3,Win32,143.6781609,226.925,228.168,space,1.234,,228.181,229.669,0,0,0,0,1,2,tatlı,şeker,TR,,,,,,,,,,,,,,,,,,,,,,,,,,,,,,,,,,,,,,,,,,
,,,,,sonat,001,2026-05-11_16h56.29.506,false_memory_experiment,2026.1.3,Win32,143.6781609,,,,,,229.67,231.168,0,1,1,1,1,2,tatlı,çikolata,TR,,,,,,,,,,,,,,,,,,,,,,,,,,,,,,,,,,,,,,,,,,
,,,,,sonat,001,2026-05-11_16h56.29.506,false_memory_experiment,2026.1.3,Win32,143.6781609,,,,,,231.169,232.668,0,2,2,2,1,2,tatlı,pasta,TR,,,,,,,,,,,,,,,,,,,,,,,,,,,,,,,,,,,,,,,,,,
,,,,,sonat,001,2026-05-11_16h56.29.506,false_memory_experiment,2026.1.3,Win32,143.6781609,,,,,,232.67,234.168,0,3,3,3,1,2,tatlı,bal,TR,,,,,,,,,,,,,,,,,,,,,,,,,,,,,,,,,,,,,,,,,,
,,,,,sonat,001,2026-05-11_16h56.29.506,false_memory_experiment,2026.1.3,Win32,143.6781609,,,,,,234.168,235.668,0,4,4,4,1,2,tatlı,reçel,TR,,,,,,,,,,,,,,,,,,,,,,,,,,,,,,,,,,,,,,,,,,
,,,,,sonat,001,2026-05-11_16h56.29.506,false_memory_experiment,2026.1.3,Win32,143.6781609,,,,,,235.669,237.168,0,5,5,5,1,2,tatlı,kek,TR,,,,,,,,,,,,,,,,,,,,,,,,,,,,,,,,,,,,,,,,,,
,,,,,sonat,001,2026-05-11_16h56.29.506,false_memory_experiment,2026.1.3,Win32,143.6781609,,,,,,237.169,238.668,0,6,6,6,1,2,tatlı,kurabiye,TR,,,,,,,,,,,,,,,,,,,,,,,,,,,,,,,,,,,,,,,,,,
,,,,,sonat,001,2026-05-11_16h56.29.506,false_memory_experiment,2026.1.3,Win32,143.6781609,,,,,,238.669,240.168,0,7,7,7,1,2,tatlı,dondurma,TR,,,,,,,,,,,,,,,,,,,,,,,,,,,,,,,,,,,,,,,,,,
,,,,,sonat,001,2026-05-11_16h56.29.506,false_memory_experiment,2026.1.3,Win32,143.6781609,,,,,,240.168,241.668,0,8,8,8,1,2,tatlı,gofret,TR,,,,,,,,,,,,,,,,,,,,,,,,,,,,,,,,,,,,,,,,,,
,,,,,sonat,001,2026-05-11_16h56.29.506,false_memory_experiment,2026.1.3,Win32,143.6781609,,,,,,241.669,243.168,0,9,9,9,1,2,tatlı,lokum,TR,,,,,,,,,,,,,,,,,,,,,,,,,,,,,,,,,,,,,,,,,,
,,,,,sonat,001,2026-05-11_16h56.29.506,false_memory_experiment,2026.1.3,Win32,143.6781609,,,,,,243.169,244.669,0,10,10,10,1,2,tatlı,şerbet,TR,,,,,,,,,,,,,,,,,,,,,,,,,,,,,,,,,,,,,,,,,,
,,,,,sonat,001,2026-05-11_16h56.29.506,false_memory_experiment,2026.1.3,Win32,143.6781609,,,,,,244.669,246.168,0,11,11,11,1,2,tatlı,meyve,TR,,,,,,,,,,,,,,,,,,,,,,,,,,,,,,,,,,,,,,,,,,
,,,,,sonat,001,2026-05-11_16h56.29.506,false_memory_experiment,2026.1.3,Win32,143.6781609,,,,,,,,,,,,,,,,,246.168,246.168,246.282,248.057,right,1.751,,0,0,0,18,1,18 + 6 = 24,right,,,,,,,,,,,,,,,,,,,,,,,,,,,,
,,,,,sonat,001,2026-05-11_16h56.29.506,false_memory_experiment,2026.1.3,Win32,143.6781609,,,,,,,,,,,,,,,,,,,248.058,249.196,left,1.121,,0,1,1,25,1,30 + 44 = 73,left,,,,,,,,,,,,,,,,,,,,,,,,,,,,
,,,,,sonat,001,2026-05-11_16h56.29.506,false_memory_experiment,2026.1.3,Win32,143.6781609,,,,,,,,,,,,,,,,,,,249.196,250.189,left,0.981,,0,2,2,36,1,28 + 42 = 69,left,,,,,,,,,,,,,,,,,,,,,,,,,,,,
,,,,,sonat,001,2026-05-11_16h56.29.506,false_memory_experiment,2026.1.3,Win32,143.6781609,,,,,,,,,,,,,,,,,,,250.19,251.113,right,0.918,,0,3,3,9,1,10 + 7 = 17,right,,,,,,,,,,,,,,,,,,,,,,,,,,,,
,,,,,sonat,001,2026-05-11_16h56.29.506,false_memory_experiment,2026.1.3,Win32,143.6781609,,,,,,,,,,,,,,,,,,,251.113,252.252,left,1.133,,0,4,4,7,1,19 - 15 = 3,left,,,,,,,,,,,,,,,,,,,,,,,,,,,,
,,,,,sonat,001,2026-05-11_16h56.29.506,false_memory_experiment,2026.1.3,Win32,143.6781609,,,,,,,,,,,,,,,,,,,252.253,253.376,left,1.103,,0,5,5,12,1,25 + 26 = 46,left,,,,,,,,,,,,,,,,,,,,,,,,,,,,
,,,,,sonat,001,2026-05-11_16h56.29.506,false_memory_experiment,2026.1.3,Win32,143.6781609,,,,,,,,,,,,,,,,,,,253.377,254.62,left,1.235,,0,6,6,15,1,5 + 32 = 42,left,,,,,,,,,,,,,,,,,,,,,,,,,,,,
,,,,,sonat,001,2026-05-11_16h56.29.506,false_memory_experiment,2026.1.3,Win32,143.6781609,,,,,,,,,,,,,,,,,,,254.621,255.537,right,0.91,,0,7,7,14,1,24 + 8 = 32,right,,,,,,,,,,,,,,,,,,,,,,,,,,,,
,,,,,sonat,001,2026-05-11_16h56.29.506,false_memory_experiment,2026.1.3,Win32,143.6781609,,,,,,,,,,,,,,,,,,,255.537,256.342,right,0.797,,0,8,8,38,1,12 - 11 = 1,right,,,,,,,,,,,,,,,,,,,,,,,,,,,,
,,,,,sonat,001,2026-05-11_16h56.29.506,false_memory_experiment,2026.1.3,Win32,143.6781609,,,,,,,,,,,,,,,,,,,256.343,257.724,right,1.359,,0,9,9,32,1,38 - 28 = 10,right,,,,,,,,,,,,,,,,,,,,,,,,,,,,
,,,,,sonat,001,2026-05-11_16h56.29.506,false_memory_experiment,2026.1.3,Win32,143.6781609,,,,,,,,,,,,,,,,,,,257.724,258.661,right,0.929,,0,10,10,16,1,44 + 5 = 49,right,,,,,,,,,,,,,,,,,,,,,,,,,,,,
,,,,,sonat,001,2026-05-11_16h56.29.506,false_memory_experiment,2026.1.3,Win32,143.6781609,,,,,,,,,,,,,,,,,,,258.662,261.03,right,2.36,,0,11,11,1,1,13 - 9 = 4,right,,,,,,,,,,,,,,,,,,,,,,,,,,,,
,,,,,sonat,001,2026-05-11_16h56.29.506,false_memory_experiment,2026.1.3,Win32,143.6781609,,,,,,,,,,,,,,,,,,,261.033,261.17,,,,0,12,12,31,1,39 + 49 = 93,left,,,,,,,,,,,,,,,,,,,,,,,,,,,,
,,,,,sonat,001,2026-05-11_16h56.29.506,false_memory_experiment,2026.1.3,Win32,143.6781609,,,,,,,,,,,,,2,,,TR,,,,,,,,,,,,,,left,261.17,262.647,space,1.451,,262.658,291.816,left,1,29.144,,0,0,0,2,1,kalem,distractor,,,,,,,,,,
,,,,,sonat,001,2026-05-11_16h56.29.506,false_memory_experiment,2026.1.3,Win32,143.6781609,,,,,,,,,,,,,2,,,TR,,,,,,,,,,,,,,right,,,,,,291.818,292.856,right,1,1.031,,0,1,1,0,1,şeker,old,,,,,,,,,,
,,,,,sonat,001,2026-05-11_16h56.29.506,false_memory_experiment,2026.1.3,Win32,143.6781609,,,,,,,,,,,,,2,,,TR,,,,,,,,,,,,,,left,,,,,,292.858,293.613,left,1,0.749,,0,2,2,3,1,saat,distractor,,,,,,,,,,
,,,,,sonat,001,2026-05-11_16h56.29.506,false_memory_experiment,2026.1.3,Win32,143.6781609,,,,,,,,,,,,,2,,,TR,,,,,,,,,,,,,,left,,,,,,293.614,294.363,right,0,0.743,,0,3,3,4,1,tatlı,critical_lure,,,,,,,,,,
,,,,,sonat,001,2026-05-11_16h56.29.506,false_memory_experiment,2026.1.3,Win32,143.6781609,,,,,,,,,,,,,2,,,TR,,,,,,,,,,,,,,right,,,,,,294.364,294.947,right,1,0.575,,0,4,4,1,1,bal,old,,,,,,,,,,
,,,,,sonat,001,2026-05-11_16h56.29.506,false_memory_experiment,2026.1.3,Win32,143.6781609,,,,,,,,,,,,,,,,,,,,,,,,,,,,,,,,,,,,,,,,,,,,,,,,,0,4,4,1,1,2,12:24,5:10,,
,,,,,sonat,001,2026-05-11_16h56.29.506,false_memory_experiment,2026.1.3,Win32,143.6781609,294.947,296.092,space,1.133,,296.104,297.593,0,0,0,0,1,4,sleep,bed,EN,,,,,,,,,,,,,,,,,,,,,,,,,,,,,,,,,,,,,,,,,,
,,,,,sonat,001,2026-05-11_16h56.29.506,false_memory_experiment,2026.1.3,Win32,143.6781609,,,,,,297.594,299.093,0,1,1,1,1,4,sleep,dream,EN,,,,,,,,,,,,,,,,,,,,,,,,,,,,,,,,,,,,,,,,,,
,,,,,sonat,001,2026-05-11_16h56.29.506,false_memory_experiment,2026.1.3,Win32,143.6781609,,,,,,299.093,300.592,0,2,2,2,1,4,sleep,pillow,EN,,,,,,,,,,,,,,,,,,,,,,,,,,,,,,,,,,,,,,,,,,
,,,,,sonat,001,2026-05-11_16h56.29.506,false_memory_experiment,2026.1.3,Win32,143.6781609,,,,,,300.593,302.092,0,3,3,3,1,4,sleep,night,EN,,,,,,,,,,,,,,,,,,,,,,,,,,,,,,,,,,,,,,,,,,
,,,,,sonat,001,2026-05-11_16h56.29.506,false_memory_experiment,2026.1.3,Win32,143.6781609,,,,,,302.094,303.593,0,4,4,4,1,4,sleep,blanket,EN,,,,,,,,,,,,,,,,,,,,,,,,,,,,,,,,,,,,,,,,,,
,,,,,sonat,001,2026-05-11_16h56.29.506,false_memory_experiment,2026.1.3,Win32,143.6781609,,,,,,303.593,305.093,0,5,5,5,1,4,sleep,rest,EN,,,,,,,,,,,,,,,,,,,,,,,,,,,,,,,,,,,,,,,,,,
,,,,,sonat,001,2026-05-11_16h56.29.506,false_memory_experiment,2026.1.3,Win32,143.6781609,,,,,,305.094,306.593,0,6,6,6,1,4,sleep,snore,EN,,,,,,,,,,,,,,,,,,,,,,,,,,,,,,,,,,,,,,,,,,
,,,,,sonat,001,2026-05-11_16h56.29.506,false_memory_experiment,2026.1.3,Win32,143.6781609,,,,,,306.594,308.093,0,7,7,7,1,4,sleep,tired,EN,,,,,,,,,,,,,,,,,,,,,,,,,,,,,,,,,,,,,,,,,,
,,,,,sonat,001,2026-05-11_16h56.29.506,false_memory_experiment,2026.1.3,Win32,143.6781609,,,,,,308.094,309.593,0,8,8,8,1,4,sleep,nap,EN,,,,,,,,,,,,,,,,,,,,,,,,,,,,,,,,,,,,,,,,,,
,,,,,sonat,001,2026-05-11_16h56.29.506,false_memory_experiment,2026.1.3,Win32,143.6781609,,,,,,309.594,311.093,0,9,9,9,1,4,sleep,dark,EN,,,,,,,,,,,,,,,,,,,,,,,,,,,,,,,,,,,,,,,,,,
,,,,,sonat,001,2026-05-11_16h56.29.506,false_memory_experiment,2026.1.3,Win32,143.6781609,,,,,,311.093,312.593,0,10,10,10,1,4,sleep,pajamas,EN,,,,,,,,,,,,,,,,,,,,,,,,,,,,,,,,,,,,,,,,,,
,,,,,sonat,001,2026-05-11_16h56.29.506,false_memory_experiment,2026.1.3,Win32,143.6781609,,,,,,312.594,314.093,0,11,11,11,1,4,sleep,yawn,EN,,,,,,,,,,,,,,,,,,,,,,,,,,,,,,,,,,,,,,,,,,
,,,,,sonat,001,2026-05-11_16h56.29.506,false_memory_experiment,2026.1.3,Win32,143.6781609,,,,,,,,,,,,,,,,,314.094,314.094,314.196,315.76,right,1.543,,0,0,0,30,1,11 + 17 = 28,right,,,,,,,,,,,,,,,,,,,,,,,,,,,,
,,,,,sonat,001,2026-05-11_16h56.29.506,false_memory_experiment,2026.1.3,Win32,143.6781609,,,,,,,,,,,,,,,,,,,315.76,318.308,left,2.529,,0,1,1,36,1,28 + 42 = 69,left,,,,,,,,,,,,,,,,,,,,,,,,,,,,
,,,,,sonat,001,2026-05-11_16h56.29.506,false_memory_experiment,2026.1.3,Win32,143.6781609,,,,,,,,,,,,,,,,,,,318.309,319.315,right,0.982,,0,2,2,28,1,17 - 13 = -1,left,,,,,,,,,,,,,,,,,,,,,,,,,,,,
,,,,,sonat,001,2026-05-11_16h56.29.506,false_memory_experiment,2026.1.3,Win32,143.6781609,,,,,,,,,,,,,,,,,,,319.315,322.003,right,2.668,,0,3,3,33,1,19 + 11 = 30,right,,,,,,,,,,,,,,,,,,,,,,,,,,,,
,,,,,sonat,001,2026-05-11_16h56.29.506,false_memory_experiment,2026.1.3,Win32,143.6781609,,,,,,,,,,,,,,,,,,,322.006,323.079,left,1.059,,0,4,4,2,1,46 - 24 = 25,left,,,,,,,,,,,,,,,,,,,,,,,,,,,,
,,,,,sonat,001,2026-05-11_16h56.29.506,false_memory_experiment,2026.1.3,Win32,143.6781609,,,,,,,,,,,,,,,,,,,323.08,324.662,right,1.557,,0,5,5,19,1,11 + 10 = 21,right,,,,,,,,,,,,,,,,,,,,,,,,,,,,
,,,,,sonat,001,2026-05-11_16h56.29.506,false_memory_experiment,2026.1.3,Win32,143.6781609,,,,,,,,,,,,,,,,,,,324.663,325.447,right,0.776,,0,6,6,16,1,44 + 5 = 49,right,,,,,,,,,,,,,,,,,,,,,,,,,,,,
,,,,,sonat,001,2026-05-11_16h56.29.506,false_memory_experiment,2026.1.3,Win32,143.6781609,,,,,,,,,,,,,,,,,,,325.448,326.524,left,1.069,,0,7,7,7,1,19 - 15 = 3,left,,,,,,,,,,,,,,,,,,,,,,,,,,,,
,,,,,sonat,001,2026-05-11_16h56.29.506,false_memory_experiment,2026.1.3,Win32,143.6781609,,,,,,,,,,,,,,,,,,,326.524,327.475,left,0.944,,0,8,8,13,1,5 + 6 = 6,left,,,,,,,,,,,,,,,,,,,,,,,,,,,,
,,,,,sonat,001,2026-05-11_16h56.29.506,false_memory_experiment,2026.1.3,Win32,143.6781609,,,,,,,,,,,,,,,,,,,327.476,328.871,right,1.39,,0,9,9,9,1,10 + 7 = 17,right,,,,,,,,,,,,,,,,,,,,,,,,,,,,
,,,,,sonat,001,2026-05-11_16h56.29.506,false_memory_experiment,2026.1.3,Win32,143.6781609,,,,,,,,,,,,,,,,,,,328.872,329.103,,,,0,10,10,11,1,39 - 15 = 26,left,,,,,,,,,,,,,,,,,,,,,,,,,,,,
,,,,,sonat,001,2026-05-11_16h56.29.506,false_memory_experiment,2026.1.3,Win32,143.6781609,,,,,,,,,,,,,4,,,EN,,,,,,,,,,,,,,left,329.103,332.135,space,3.021,,332.146,336.579,right,0,4.417,,0,0,0,4,1,sleep,critical_lure,,,,,,,,,,
,,,,,sonat,001,2026-05-11_16h56.29.506,false_memory_experiment,2026.1.3,Win32,143.6781609,,,,,,,,,,,,,4,,,EN,,,,,,,,,,,,,,left,,,,,,336.58,337.246,left,1,0.661,,0,1,1,2,1,chair,distractor,,,,,,,,,,
,,,,,sonat,001,2026-05-11_16h56.29.506,false_memory_experiment,2026.1.3,Win32,143.6781609,,,,,,,,,,,,,4,,,EN,,,,,,,,,,,,,,left,,,,,,337.247,337.934,left,1,0.681,,0,2,2,3,1,car,distractor,,,,,,,,,,
,,,,,sonat,001,2026-05-11_16h56.29.506,false_memory_experiment,2026.1.3,Win32,143.6781609,,,,,,,,,,,,,4,,,EN,,,,,,,,,,,,,,right,,,,,,337.934,340.26,right,1,2.322,,0,3,3,0,1,bed,old,,,,,,,,,,
,,,,,sonat,001,2026-05-11_16h56.29.506,false_memory_experiment,2026.1.3,Win32,143.6781609,,,,,,,,,,,,,4,,,EN,,,,,,,,,,,,,,right,,,,,,340.261,340.851,right,1,0.587,,0,4,4,1,1,yawn,old,,,,,,,,,,
,,,,,sonat,001,2026-05-11_16h56.29.506,false_memory_experiment,2026.1.3,Win32,143.6781609,,,,,,,,,,,,,,,,,,,,,,,,,,,,,,,,,,,,,,,,,,,,,,,,,0,5,5,3,1,4,36:48,15:20,,
,,,,,sonat,001,2026-05-11_16h56.29.506,false_memory_experiment,2026.1.3,Win32,143.6781609,,,,,,,,,,,,,,,,,,,,,,,,,,,,,,,,,,,,,,,,,,,,,,,,,,,,,,,,,340.851,343.85
